timestamp,acc_x,acc_y,acc_z,gyro_x,gyro_y,gyro_z,acc_mag_sq,gyro_mag_sq,label_id
1774626780000,-0.31719625,0.24903631,-1.3669672,-0.2398662,-0.18659034,-0.015887825,2.0312319,0.092604175,0
1774626780001,-0.12069601,0.11423302,0.3298874,-0.16494027,-0.20189528,-0.010092266,0.1364424,0.068068855,0
1774626780001,0.12092346,0.0061893463,0.56779194,0.037721094,-0.012140697,-0.014172473,0.3370485,0.0017711364,0
1774626780001,0.12380868,-0.07761574,0.3112831,0.05390869,0.046131317,-0.016287519,0.11824997,0.005299529,0
1774626780018,0.31502813,0.018515587,-0.28990984,-0.06270195,0.0030643186,-0.042117726,0.18363327,0.005714827,0
1774626780029,0.17558318,0.07825613,-0.28008556,-0.17521574,-0.14702067,-0.040802065,0.1154014,0.05398044,0
1774626780047,-0.109532356,0.29589462,0.09167385,-0.20052966,-0.25130743,-0.0070446017,0.10795505,0.103417195,0
1774626780067,0.05156833,0.20424461,-0.025485992,-0.20426014,-0.28418222,-0.018485835,0.045024686,0.12282346,0
1774626780086,0.4230787,-0.054092407,-0.19334793,-0.19035414,-0.26063362,-0.06623258,0.219305,0.10855134,0
1774626780103,0.37656364,0.03036356,-0.17982388,-0.14179134,-0.16608939,-0.07993874,0.17505875,0.05408067,0
1774626780131,0.24083197,0.12354708,-0.12456894,-0.06581623,-0.08483499,-0.073643565,0.08878134,0.016952127,0
1774626780148,0.07724059,0.23695135,0.16181183,-0.034190465,-0.07014625,-0.056956355,0.08829512,0.00933351,0
1774626780164,0.112855494,0.3138032,-0.1872139,-0.070112936,-0.08481834,-0.049661946,0.14625785,0.014576283,0
1774626780184,0.08924049,0.32823324,-0.39900208,-0.11701033,-0.10440333,-0.047830015,0.2749036,0.026879184,0
1774626780203,0.009269953,0.3358221,-0.4385481,-0.14322358,-0.09980685,-0.04374981,0.30518687,0.03238845,0
1774626780223,-0.09947485,0.40215254,-0.15345669,-0.12776875,-0.119058765,-1.16577336E-4,0.19517088,0.030499859,0
1774626780247,-0.5916081,0.7349138,0.28912544,-0.11018223,-0.18717323,0.08341941,0.973692,0.05413274,0
1774626780263,-0.5017404,0.6599169,0.14700508,-0.087682806,-0.17210145,0.14179134,0.7088442,0.05741197,0
1774626780283,-0.3163126,0.53970194,0.065460205,-0.06013725,-0.10603541,0.1650402,0.3956169,0.04209826,0
1774626780303,-0.108107924,0.3242426,0.047984123,-0.024747703,-0.05002833,0.15841195,0.11912306,0.028209629,0
1774626780323,-0.08599144,0.22318268,0.099832535,-0.0028811255,-0.025480475,0.15168376,0.06717157,0.02366552,0
1774626780344,-0.06363416,0.11574745,0.038630486,-0.0032142035,-0.026296515,0.14042573,0.018939093,0.020421222,0
1774626780365,-0.03856671,0.06916475,-0.05640602,-0.016770482,-0.041951187,0.13473009,0.009452794,0.020193348,0
1774626780383,0.05846852,0.086511135,-0.0897789,-0.024697741,-0.042900458,0.12285586,0.018962996,0.017543988,0
1774626780402,0.18381897,0.034811497,-0.17206001,-0.00844353,-0.00989242,0.10698468,0.0646059,0.011614876,0
1774626780423,0.17918456,0.0056090355,-0.1751461,0.009192956,0.022449464,0.10555245,0.06281472,0.0117298085,0
1774626780443,0.2509959,-0.01951456,-0.30760002,-0.0013656202,0.039769527,0.10350402,0.15799755,0.012296562,0
1774626780462,0.41454834,-0.07009363,-0.37577438,-0.027845329,0.031825613,0.094644144,0.31796983,0.010745745,0
1774626780482,0.48621947,-0.059577465,-0.31190014,-0.045215353,0.014255743,0.077557236,0.33724052,0.00826278,0
1774626780502,0.58058983,-0.055860996,-0.3697853,-0.053275842,0.036571976,0.058588438,0.47694618,0.00760843,0
1774626780524,0.50438654,0.03449154,-0.40488434,-0.049062405,0.08073813,0.05300938,0.41952682,0.01173576,0
1774626780544,0.4063786,0.09372091,-0.38374996,-0.051677067,0.116460755,0.061719373,0.3211912,0.020042907,0
1774626780564,0.30980122,0.08103466,-0.3784876,-0.061652757,0.12928426,0.080471665,0.24579626,0.026991172,0
1774626780584,0.2586822,0.10339928,-0.32182026,-0.08268664,0.11424579,0.100306466,0.18117616,0.029950568,0
1774626780602,0.30223292,0.13420153,-0.26024437,-0.12643644,0.049845137,0.1057856,0.17708191,0.029661305,0
1774626780624,0.35234118,0.20561075,-0.34773922,-0.21661735,-0.064583845,0.051077526,0.28734267,0.053703062,0
1774626780644,0.6323091,-0.1381216,-0.04582405,-0.1645739,-0.035173047,0.01786964,0.4209922,0.028641034,0
1774626780664,0.048235923,0.5981145,-0.0056991577,-0.13952641,0.047663476,0.10941616,0.36010012,0.03371132,0
1774626780683,0.2865559,0.058557987,-0.056456566,-0.18872204,-0.002448124,0.09514376,0.08873066,0.044674337,0
1774626780704,0.20073748,0.23635149,-0.24533558,-0.19566673,0.14187461,0.106801495,0.15634711,0.069820434,0
1774626780726,0.1436736,0.31101274,-0.005255699,-0.17098564,0.2242948,0.120058,0.11739865,0.09395817,0
1774626780744,0.030245036,0.37964678,0.3934412,-0.20902316,0.11639414,0.14110854,0.29984242,0.0771499,0
1774626780770,-0.19542012,0.43863535,0.4318819,-0.24677756,0.05216003,0.1972655,0.417112,0.102533504,0
1774626780783,-0.066281766,0.41412735,0.6409912,-0.20469314,0.009609303,0.21976493,0.58676445,0.09028825,0
1774626780804,0.012329102,0.40016937,0.6594534,-0.07637481,0.05923794,0.2262433,0.5951663,0.06052828,0
1774626780829,-0.083759665,0.50926113,0.7087202,0.09784169,0.06946344,0.23417056,0.76864696,0.06923401,0
1774626780843,-0.07966602,0.51509714,0.68595314,0.19589989,0.008543453,0.25662002,0.7422035,0.10430359,0
1774626780864,-0.1371778,0.46033096,0.13205528,0.18084475,0.044132847,0.3194885,0.24816096,0.13672544,0
1774626780883,-0.19040483,0.46682835,-0.26734352,0.13707829,0.12228962,0.41894564,0.32565525,0.20926064,0
1774626780903,-0.24763963,0.64700985,0.038829803,0.13502987,0.13466348,0.51052547,0.4814549,0.29700357,0
1774626780925,-0.16580349,0.48233843,0.13679886,0.15889491,0.15956107,0.5652835,0.2788551,0.37025273,0
1774626780943,-0.27650613,0.112030506,0.14169788,0.1889219,0.20627527,0.60250497,0.109084755,0.4412532,0
1774626780960,-0.32253465,0.11042738,0.0032186508,0.18226033,0.24198124,0.6000235,0.11623316,0.45180196,0
1774626780984,-0.43314004,0.12063265,-0.21410847,0.14603809,0.30056968,0.63278174,0.24800497,0.512082,0
1774626781002,-0.7442411,0.04094553,0.08198357,0.12007465,0.29295883,0.6649571,0.5622927,0.5424108,0
1774626781023,-0.6763736,-0.15676546,0.22884178,0.09491061,0.162259,0.6642743,0.5344252,0.47659633,0
1774626781041,-0.5708676,-0.26072454,-0.019030571,0.01625421,0.10528599,0.65363246,0.39422926,0.43858474,0
1774626781062,-0.7518334,-0.23208094,-0.28137589,-0.030459993,0.13782771,0.7275758,0.69828737,0.5492908,0
1774626781084,-0.75290114,-0.22330904,-0.25925827,0.004213438,0.23228866,0.78106815,0.6839419,0.6640432,0
1774626781102,-0.4972403,-0.3611145,-0.44901276,0.12180666,0.4055559,0.77307427,0.57926404,0.7769563,0
1774626781126,-0.2956087,-0.5451765,-0.43304253,0.2958899,0.57927275,0.7319891,0.57212776,0.9589158,0
1774626781140,-0.28385574,-0.5457449,-0.35101604,0.48024866,0.72264624,0.70036334,0.50162387,1.2433652,0
1774626781159,-0.54514426,-0.3482628,-0.0484581,0.62553734,0.79720575,0.7211141,0.4208174,1.5468395,0
1774626781179,-0.6026711,-0.35778236,-0.05389595,0.5452988,0.8084638,0.7615331,0.49412543,1.5308971,0
1774626781200,-0.7802685,-0.326684,-0.26901913,0.3277655,0.7635982,0.8283985,0.7879126,1.3767565,0
1774626781219,-0.7707978,-0.29743814,-0.3783865,0.13248181,0.754272,0.82734936,0.825775,1.2709846,0
1774626781240,-0.6919856,-0.42751408,-0.37252903,-0.038836908,0.70614225,0.76364815,0.80039024,1.0833037,0
1774626781259,-0.71674424,-0.4115467,-0.24919748,-0.20227833,0.5847186,0.70475996,0.7451924,0.87949896,0
1774626781279,-0.71833,-0.21162176,-0.44752312,-0.34197128,0.4618128,0.68883884,0.7610587,0.8047143,0
1774626781308,-0.6005676,-0.13034534,-0.45931435,-0.3353597,0.4678748,0.73117304,0.588641,0.86598694,0
1774626781325,-0.5706669,-0.02055788,-0.12087822,-0.20352738,0.53355783,0.80934644,0.3406949,0.98114896,0
1774626781344,-0.6880894,0.2802086,-0.16584301,-0.03608901,0.63221556,0.9036908,0.57948774,1.217656,0
1774626781361,-0.5941502,0.4891367,-0.15475845,0.10050631,0.72794217,0.98371285,0.61621934,1.5076923,0
1774626781379,-0.6749153,0.39607096,-0.1084919,0.14155819,0.7013126,0.9541688,0.6241534,1.4223162,0
1774626781399,-0.35248265,-0.033216,0.03778076,0.012790199,0.5187192,0.78959495,0.1267747,0.8926934,0
1774626781419,-0.13160497,-0.022461414,-0.5734987,-0.14891921,0.45686656,0.67111903,0.34672517,0.68130475,0
1774626781443,-0.31021386,0.10383463,-0.63269615,-0.27408996,0.37609515,0.67429996,0.5073187,0.6712533,0
1774626781459,-0.39127985,0.38064575,-0.2134428,-0.42129382,0.30073622,0.7093398,0.34354892,0.77109367,0
1774626781480,-0.3085295,-0.07732391,0.15970325,-0.46239567,0.20955609,0.7612167,0.12667456,0.83717436,0
1774626781500,-0.09988016,-0.32864904,0.032974243,-0.41240063,0.12613668,0.8345105,0.11907354,0.8823925,0
1774626781519,0.18341036,-0.3873973,-0.015166283,-0.28847894,0.04295042,0.8617563,0.18394603,0.8276888,0
1774626781541,0.45148495,-0.2619133,-0.22575569,-0.25179037,-0.025963437,0.7936418,0.32340288,0.6939398,0
1774626781559,0.105692424,0.102283955,0.18545151,-0.14342342,-0.06789797,0.7186993,0.056025155,0.54170907,0
1774626781578,0.41398427,0.23201513,0.55288124,0.17931259,0.07774043,0.39881107,0.53089166,0.19724685,0
1774626781598,0.7411234,-0.5598078,0.38620472,0.34834972,0.0066116,0.13001704,1.0118027,0.13829567,0
1774626781618,0.86656606,-0.8222704,-0.12591267,0.27880302,-0.22431144,-0.13877699,1.4429194,0.1473058,0
1774626781641,1.8077435,-0.65119076,-0.23497295,0.29707235,-0.51095843,-0.51164126,3.7471983,0.61110723,0
1774626781659,0.35727915,-0.015995502,0.62479687,0.49298888,-0.79299235,-0.462379,0.5182754,1.0856693,0
1774626781677,-0.44832465,0.67483187,0.6271143,0.64355683,-0.86288875,-0.31848928,1.0496655,1.2601779,0
1774626781697,-0.2913369,0.07726526,0.24390888,0.6304835,-0.90150917,-0.24955876,0.15033865,1.2725078,0
1774626781717,-0.15620846,-0.087873936,0.09365463,0.65619713,-0.71350324,-0.27319065,0.0408941,1.0143147,0
1774626781739,0.07416028,0.17164469,-0.38270473,0.6158281,-0.36676896,-0.29787174,0.18142456,0.6024913,0
1774626781760,0.07887119,0.2360673,-1.0018506,0.45665008,0.013040007,-0.23352106,1.0656531,0.26323143,0
1774626781779,-1.2196844,0.07352972,-1.3055811,0.20945616,0.34343684,0.015254977,3.1975784,0.16205345,0
1774626781799,-1.328646,0.7615433,-1.181623,-0.05101091,0.34410298,0.2119709,3.741481,0.16594064,0
1774626781826,-0.6890959,0.9751816,-0.62828255,-0.2250109,0.28421554,0.27095902,1.8205712,0.20482716,0
1774626781839,-0.025521725,0.34280825,-0.67200756,-0.35061467,0.36610278,0.19881432,0.569763,0.296489,0
1774626781860,-0.095641404,0.120517254,-0.5852022,-0.38632062,0.49988362,0.09292879,0.36613333,0.407763,0
1774626781879,0.66625464,-0.8394685,0.030188084,-0.30056968,0.35611045,-0.052659646,1.149514,0.21992981,0
1774626781897,0.0077672005,0.04396391,0.90257883,-0.11934188,0.06659897,-0.1177098,0.81664175,0.032533504,0
1774626781919,0.35916695,-0.2869439,0.8973522,0.025780244,-0.21873239,-0.24026589,1.0165787,0.106236175,0
1774626781941,0.18614662,-0.78636503,0.36708355,0.06779805,-0.32724923,-0.30331758,0.78777087,0.20369019,0
1774626781956,-0.018351853,-0.6579642,-0.237154,0.04298373,-0.24371324,-0.32481775,0.48949575,0.16675031,0
1774626781976,-0.46181858,-0.0571537,-0.6113391,-0.09224598,-0.13502987,-0.2515239,0.59027845,0.090006664,0
1774626781997,-0.94119143,0.5256853,-0.3883009,-0.22061428,-0.13980953,-0.022282925,1.312964,0.068713896,0
1774626782016,-1.3844342,0.17466068,0.33237505,-0.24173144,-0.33699176,0.14710394,2.0576377,0.1936371,0
1774626782041,-1.3844342,0.17466068,0.33237505,-0.18572435,-0.49726894,0.23665199,2.0576377,0.3377741,0
1774626782060,-0.38672087,-0.4400034,0.341784,-0.12993376,-0.44510892,0.32172012,0.45997235,0.31850857,0
1774626782084,0.33772692,-0.6873913,0.5918207,-0.09489395,-0.50348085,0.17669792,0.936818,0.29372,0
1774626782099,0.2397309,-0.41081476,0.8475466,-0.021466883,-0.533258,0.096409455,0.9445749,0.29411972,0
1774626782120,-0.19600837,-0.04512453,0.19183731,-0.012407159,-0.44709072,0.055557426,0.07725706,0.20313068,0
1774626782138,-0.09513456,-0.22963333,0.053297997,-0.08889855,-0.41491538,-0.022782542,0.06462272,0.18057676,0
1774626782156,-0.1523467,-0.22161865,0.2246108,-0.1528995,-0.41854593,-0.07710758,0.12277436,0.20450453,0
1774626782175,0.1495502,-0.3830142,0.40509987,-0.17914605,-0.37434646,-0.13507982,0.33317104,0.19047514,0
1774626782198,0.24767393,-0.3929882,0.27694988,-0.22534399,-0.2692437,-0.18290983,0.29248333,0.15672809,0
1774626782219,0.26367122,-0.44520998,0.08235073,-0.3059822,-0.17881298,-0.23835069,0.27451608,0.18241024,0
1774626782237,-0.021421969,0.098869324,0.7089286,-0.18987116,-0.10308767,-0.21746668,0.5128138,0.09396988,0
1774626782255,-0.13398796,0.2791953,0.98030853,-0.010092266,-0.042550728,-0.14427277,1.0569077,0.022727052,0
1774626782279,0.12903851,-0.09010601,0.59411573,0.011591118,-0.052359875,-0.13514644,0.3777435,0.021140471,0
1774626782299,0.17873698,-0.124984264,0.22496128,0.0035805895,-0.02776206,-0.11048201,0.098175555,0.0129898265,0
1774626782323,0.045446932,0.02428341,0.41017485,0.013639548,-0.09655934,-0.09802488,0.17089851,0.019118622,0
1774626782338,0.39262545,-0.09708691,0.41972876,0.0082936445,-0.12202316,-0.14370655,0.33975285,0.035610005,0
1774626782355,0.5757221,-0.18480587,0.2396946,-0.0150051685,-0.06363457,-0.17684782,0.42306268,0.035549663,0
1774626782374,0.30738503,-0.19785213,0.34994936,-0.025913475,-0.03698832,-0.15469812,0.2560956,0.025971152,0
1774626782398,0.0061790943,-0.15820599,0.69646835,-0.006428407,-0.10357063,-0.107034646,0.5101355,0.022224616,0
1774626782420,0.14477038,-0.30469084,0.7359719,0.016620597,-0.16802125,-0.10198852,0.6554497,0.038909044,0
1774626782437,0.74767363,-0.74581194,0.64444923,0.047963247,-0.15483135,-0.23678522,1.5305661,0.08234046,0
1774626782455,0.7994072,-0.4669342,0.9083972,0.13134934,-0.16583958,-0.31539166,1.6822648,0.14422731,0
1774626782474,0.7073656,-0.5127363,0.7755418,0.15653005,-0.25112423,-0.41000247,1.3647296,0.25566706,0
1774626782494,0.5315976,-0.6057973,0.6334367,0.19266902,-0.24158154,-0.45265314,1.0508285,0.30037785,0
1774626782516,0.10439509,-0.30856085,0.12698746,0.121623464,-0.1512008,-0.40535605,0.12223395,0.20196748,0
1774626782537,-0.44949895,-0.024287224,-0.07041693,0.02251608,-0.15831202,-0.29988685,0.2075977,0.11550179,0
1774626782557,-0.34665537,-0.49644804,0.17567253,0.011391271,-0.24329689,-0.2569198,0.39749146,0.12533092,0
1774626782576,-0.1600973,-0.50350475,0.48616362,0.07545884,-0.31823948,-0.26577967,0.5155033,0.17760924,0
1774626782594,0.14459866,-0.5841837,0.38786602,0.10468645,-0.392366,-0.31895557,0.51261944,0.266643,0
1774626782613,-0.15256089,-0.5602145,0.25360966,0.133531,-0.39529708,-0.31737345,0.401433,0.27481622,0
1774626782635,-0.35871217,-0.50967836,0.046415806,0.12360528,-0.31992152,-0.29698908,0.3906009,0.20583056,0
1774626782656,-0.35516024,-0.48191357,-0.3661666,0.06000402,-0.16135968,-0.28501493,0.49245745,0.11087094,0
1774626782673,-0.341208,-0.44955873,-0.54738855,-0.036621936,-0.06413419,-0.28281662,0.6181602,0.0854396,0
1774626782695,-0.6417105,-0.38478565,-0.29628658,-0.09058059,-0.06744832,-0.24469583,0.6476381,0.07263017,0
1774626782713,-0.9278598,-0.4024186,0.33179808,-0.024697741,-0.10496956,-0.15906145,1.1329545,0.03692913,0
1774626782737,-0.8561276,-0.40079403,0.76942873,0.0880825,-0.15709628,-0.098291345,1.485611,0.042098954,0
1774626782756,-0.6128598,-0.43691015,0.7163992,0.16335815,-0.19230264,-0.075075805,1.0797155,0.069302574,0
1774626782773,-0.3515967,-0.4799285,0.32795334,0.16390774,-0.15313266,-0.083219565,0.461505,0.057240855,0
1774626782793,-0.49061644,-0.4062791,-0.14775944,0.09514376,-0.011391271,-0.037204824,0.42760006,0.010566294,0
1774626782813,-0.78824246,-0.3239808,-0.4016142,0.008043836,0.13877699,0.057772394,0.8875836,0.022661405,0
1774626782836,-0.6806563,-0.29544878,-0.1008625,-0.0017320061,0.23934992,0.115045175,0.56075627,0.07052677,0
1774626782855,-0.4593646,-0.36300707,0.2950034,0.060337096,0.28428215,0.13979287,0.42981696,0.103998944,0
1774626782872,-0.43058583,-0.4282689,0.33826113,0.104669794,0.28897855,0.16795462,0.483239,0.122673124,0
1774626782892,-0.42614812,-0.404871,0.15559912,0.10978254,0.26396438,0.20995578,0.36973384,0.12581083,0
1774626782913,-0.56993467,-0.19897509,0.16303444,0.12542056,0.21045539,0.2680446,0.3909968,0.13186969,0
1774626782936,-0.55584574,-0.4108758,0.16764593,0.12042438,0.21308671,0.33421057,0.5058886,0.1716047,0
1774626782955,-0.59805787,-0.33742666,-0.10436869,0.086866766,0.3303635,0.42688954,0.48242277,0.29892057,0
1774626782977,-0.5887914,-0.24799585,-0.2602663,0.028877871,0.42850497,0.5118411,0.4759158,0.4464318,0
1774626782992,-0.46960884,-0.39933872,-0.084608555,-0.022665964,0.43923008,0.5708292,0.38716248,0.5192828,0
1774626783012,-0.38278797,-0.3259096,0.25486088,-0.0032641653,0.4269062,0.64850307,0.3176978,0.60281575,0
1774626783034,-0.311786,-0.0048007965,0.3878951,0.066432424,0.48312977,0.7187492,0.24769616,0.754428,0
1774626783054,-0.021540523,-0.3139286,0.42112017,0.09289548,0.50034994,0.7368853,0.27635735,0.8019796,0
1774626783074,-0.060812265,-0.30708027,0.60405636,0.14777009,0.5273126,0.7873633,0.4628805,0.9198355,0
1774626783092,-0.23963511,-0.114320755,0.5176134,0.16529,0.55850536,0.855661,0.3384179,1.0714047,0
1774626783114,-0.0112915635,-0.28607655,0.17485619,0.09867439,0.58646727,0.87969255,0.11254198,1.1275394,0
1774626783134,0.24160689,-0.40783358,0.23560238,0.08133767,0.6461715,0.8961966,0.2802106,1.2273219,0
1774626783158,0.11493081,-0.2906599,0.4694605,0.1224062,0.7265266,0.94547546,0.31808543,1.436748,0
1774626783174,0.07218909,-0.5124731,0.5523424,0.15126742,0.7449458,0.99996704,0.5729221,1.5777602,0
1774626783193,0.119160175,-0.58413076,0.4608574,0.17546554,0.7344039,1.0477471,0.5677974,1.6679113,0
1774626783212,0.5074956,-0.70822287,0.4222126,0.19068721,0.7040771,1.0333415,0.9373949,1.5998809,0
1774626783239,0.69185615,-0.74650717,0.3166871,0.2036606,0.70349425,1.0119079,1.1362287,1.5603395,0
1774626783251,0.5264402,-0.6933632,0.21321678,0.19040409,0.7469443,1.0239487,0.8033532,1.6426504,0
1774626783274,0.34037018,-0.60158587,0.068104744,0.14732045,0.81437594,1.0654836,0.48239565,1.8201667,0
1774626783291,0.41234547,-0.6848335,0.09018421,0.101738706,0.8516973,1.0872502,0.6471589,1.9178522,0
1774626783311,0.49083352,-0.74769783,0.24749613,0.08193721,0.84400326,1.0925294,0.86122394,1.9126757,0
1774626783334,0.5596069,-0.78929186,0.47432804,0.11354633,0.82163703,1.0761421,1.1611286,1.846062,0
1774626783354,0.5894259,-0.75872135,0.6431017,0.18284322,0.8085804,1.0695304,1.3366609,1.8311291,0
1774626783373,0.56770235,-0.68414354,0.49011946,0.20815715,0.7657299,1.054342,1.0305555,1.7413088,0
1774626783393,0.6186659,-0.62349224,0.2831149,0.20421018,0.7525067,1.0305936,0.8516441,1.6700913,0
1774626783413,0.6528578,-0.61677647,0.040994167,0.13940984,0.7424977,1.002565,0.80831695,1.5758746,0
1774626783436,0.5928756,-0.5696602,0.0061802864,0.077190846,0.7882626,0.9957869,0.6760524,1.6189079,0
1774626783450,0.53327054,-0.559659,0.19488859,0.06604939,0.8754125,1.0019323,0.63557726,1.7745779,0
1774626783475,0.68033093,-0.648849,0.3991785,0.09304537,0.9102192,0.9879929,1.0431987,1.8132863,0
1774626783493,0.66752696,-0.7069955,0.5155029,0.10966596,0.8534294,0.9812647,1.2111781,1.7032487,0
1774626783513,0.53941584,-0.64047956,0.48872328,0.11542822,0.8013526,0.9936719,0.9400339,1.6428735,0
1774626783537,0.44928312,-0.550725,0.45162773,0.115994446,0.76689565,1.0119911,0.70912087,1.6257098,0
1774626783550,0.6106648,-0.5457306,0.5628123,0.15063457,0.80909663,1.0129904,0.987491,1.7034776,0
1774626783570,0.70354605,-0.5162034,0.4946003,0.18067822,0.8912837,1.0093099,1.0060725,1.8457377,0
1774626783592,0.5651169,-0.40848875,0.31901503,0.17130207,0.90848714,1.0132235,0.58799076,1.8813152,0
1774626783614,0.50015473,-0.36263227,0.20136213,0.14530532,0.8818576,1.0028648,0.42220366,1.8045243,0
1774626783633,0.44370013,-0.3454175,0.26195288,0.1392433,0.8679016,1.0016657,0.38480237,1.7759761,0
1774626783650,0.3284592,-0.34378195,0.3662305,0.15065122,0.8880528,1.0190524,0.36019623,1.8498013,0
1774626783674,0.32327688,-0.37357616,0.32632732,0.15539758,0.93649906,1.038754,0.3505566,1.9801888,0
1774626783691,0.3216744,-0.36887646,0.35321808,0.15671325,0.9636782,1.0509946,0.36430728,2.0578244,0
1774626783711,0.1651972,-0.39911366,0.38385296,0.14320692,0.93418413,1.0724782,0.33392492,2.0434177,0
1774626783734,0.052829802,-0.48506927,0.63022184,0.17058595,0.9046068,1.1059858,0.6352627,2.0706177,0
1774626783749,0.09824538,-0.59425735,0.87800646,0.23088974,0.9062222,1.1374284,1.1336894,2.168292,0
1774626783769,0.2213561,-0.6995387,0.8348217,0.264031,0.9023252,1.1520839,1.2352802,2.2112002,0
1774626783790,0.2826839,-0.7701211,0.66293955,0.26281527,0.89949405,1.1474373,1.1124855,2.194774,0
1774626783811,0.27365482,-0.8652978,0.35660124,0.2119709,0.94689107,1.1363792,0.95079166,2.232892,0
1774626783832,0.18858248,-0.94125366,0.24182463,0.17463285,1.0280622,1.1316994,0.9800009,2.3681521,0
1774626783851,-0.12184727,-0.87199926,0.49307537,0.20247817,1.0844523,1.1589952,1.0183527,2.5603037,0
1774626783869,-0.233805,-0.84178066,0.5710435,0.23218875,1.0614532,1.1821941,1.0893501,2.5781775,0
1774626783889,-0.29289708,-0.75324583,0.461339,0.24489567,1.0269797,1.1984816,0.8660016,2.5510192,0
1774626783909,-0.15008298,-0.64500713,0.2604108,0.2243281,0.9749196,1.1734508,0.50637287,2.377778,0
1774626783932,5.49078E-4,-0.55789804,0.16188908,0.18948813,0.9252743,1.123489,0.3374586,2.1542659,0
1774626783951,0.15716594,-0.6046572,0.13155699,0.17303407,0.9437934,1.0698135,0.40761867,2.0651877,0
1774626783971,0.12669778,-0.5112462,0.096324444,0.16095999,0.99545383,1.0216504,0.2867034,2.060606,0
1774626783989,-0.110675454,-0.401165,-0.07538366,0.120374426,1.0100594,0.9936552,0.1788651,2.0220606,0
1774626784008,-0.2855019,-0.28017282,-0.23790073,0.038786944,0.9663428,0.9640446,0.2166049,1.8647047,0
1774626784031,-0.25199187,-0.2178812,-0.18839121,-0.03279154,0.91954535,0.91126835,0.14646336,1.6770489,0
1774626784051,-0.16562524,-0.23435307,0.034944534,-0.058705013,0.9258738,0.8545951,0.0835742,1.5910215,0
1774626784068,-0.24425527,-0.3247819,0.16501617,-0.058621746,0.9865107,0.82894814,0.19237426,1.6637949,0
1774626784088,-0.421879,-0.31956673,0.09878683,-0.0709956,1.0250978,0.81975514,0.28986362,1.7278645,0
1774626784110,-0.5701129,-0.30830574,0.09728527,-0.071978174,1.0247813,0.82138723,0.42954552,1.7300346,0
1774626784133,-0.57854486,-0.31963062,0.15369797,-0.060753446,0.97996575,0.8049665,0.46050096,1.611995,0
1774626784153,-0.5225631,-0.34526873,0.14211702,-0.04836294,0.9338677,0.7866305,0.4124799,1.4932353,0
1774626784170,-0.6315162,-0.31387997,0.020171642,-0.07126206,0.89160013,0.79407483,0.49774027,1.430584,0
1774626784187,-0.7794111,-0.21186495,-0.08128786,-0.108433574,0.9104523,0.826017,0.6589761,1.5229855,0
1774626784208,-0.6194647,-0.20342827,0.033951283,-0.11011562,0.9748363,0.84245443,0.42627227,1.6721607,0
1774626784232,-0.5205791,-0.22549772,0.11388826,-0.10285451,1.0005666,0.8463181,0.33482236,1.727967,0
1774626784250,-0.5136084,-0.18355465,0.06846237,-0.10222167,0.9731043,0.8422546,0.302173,1.666774,0
1774626784267,-0.60419655,-0.139328,0.0334301,-0.10085605,0.89911103,0.8508147,0.3855833,1.5424583,0
1774626784288,-0.73196316,-0.08352947,0.06507778,-0.10392036,0.80653197,0.86893415,0.54698235,1.4163399,0
1774626784309,-0.653545,-0.06883335,0.09422779,-0.101388976,0.7940582,0.8795094,0.44073802,1.4143449,0
1774626784333,-0.44174662,-0.08554077,0.03151989,-0.12287251,0.80526626,0.85462844,0.20345081,1.3939412,0
1774626784349,-0.35704446,-0.09498596,0.14318323,-0.12373851,0.8379079,0.84433633,0.1570045,1.4303048,0
1774626784370,-0.53266704,-0.083388805,0.22038698,-0.11797626,0.8263501,0.86343837,0.33925828,1.4422987,0
1774626784389,-0.51169884,-0.050487995,0.36010885,-0.09969027,0.7672454,0.8709326,0.39406312,1.3571273,0
1774626784409,-0.35748175,-0.06749201,0.46575165,-0.07331049,0.7028947,0.85917497,0.34927297,1.237617,0
1774626784430,-0.12604767,-0.1423769,0.49333143,-0.04208442,0.6783635,0.82318586,0.27953508,1.1395831,0
1774626784448,0.11319995,-0.14329004,0.4369626,-0.021267036,0.712937,0.77465636,0.22428258,1.1088239,0
1774626784469,0.016930223,-0.1430769,0.36162615,-0.01232389,0.7331715,0.7518239,0.1515311,1.1029315,0
1774626784489,-0.124994725,-0.16682053,0.35833883,0.006145291,0.7028114,0.7478769,0.17185949,1.0533016,0
1774626784509,-0.24109712,-0.18947744,0.30492306,0.022616003,0.62678635,0.7518239,0.1870076,0.95861185,0
1774626784530,-0.18542475,-0.16469193,0.33007812,0.035422854,0.5376214,0.73442054,0.17045733,0.82966506,0
1774626784546,-0.08411801,-0.16336823,0.19872332,0.0137061635,0.5158547,0.70714146,0.07325597,0.766343,0
1774626784566,-0.013926297,-0.23904276,-0.010932922,-0.036138974,0.5648172,0.6884891,0.057454914,0.7943417,0
1774626784589,-0.07610354,-0.27720737,0.10151672,-0.049928408,0.6306168,0.6919864,0.092941314,0.87901556,0
1774626784613,-0.19476819,-0.30478668,0.38869238,-0.0030476646,0.6314828,0.70948964,0.28191134,0.90215534,0
1774626784630,-0.2880768,-0.31960392,0.49333906,0.05087768,0.5234655,0.723862,0.4285183,0.80058086,0
1774626784646,-0.3208882,-0.3114133,0.44001055,0.09386141,0.40823716,0.73586947,0.39355677,0.7169714,0
1774626784668,-0.30220222,-0.2751894,0.1482706,0.0910802,0.3762783,0.74486256,0.18903957,0.7047012,0
1774626784689,-0.21641701,-0.24071217,-0.050061226,0.06638247,0.44284397,0.741665,0.1072848,0.7505844,0
1774626784708,-0.12724593,-0.24849081,-0.17416954,0.029460758,0.510259,0.7268763,0.108274244,0.7895813,0
1774626784730,-0.14431626,-0.22866726,-0.035872936,0.02035107,0.5151886,0.7121876,0.074402764,0.7730446,0
1774626784748,-0.2450887,-0.18719816,0.09543705,0.023765123,0.45391884,0.6960333,0.104219854,0.6910695,0
1774626784765,-0.25976217,-0.17205048,0.19242907,0.044382658,0.39284897,0.6784801,0.1341067,0.6166353,0
1774626784788,-0.17098212,-0.20077038,0.12447214,0.04614797,0.4009261,0.65799576,0.08503694,0.5958298,0
1774626784807,-0.060830414,-0.18088341,-0.06206703,0.022566041,0.44697416,0.6452389,0.04027146,0.61662835,0
1774626784830,-0.032529086,-0.13100576,-0.046744347,-0.011624426,0.4444261,0.6264866,0.020405686,0.59013516,0
1774626784847,0.01166594,-0.10762453,0.061910152,-0.023398736,0.42374197,0.6036707,0.015552001,0.54452306,0
1774626784867,0.060533673,-0.13359976,0.19532776,-0.020167878,0.3641876,0.5813712,0.059666157,0.4710318,0
1774626784887,0.08668104,-0.10759497,0.2905507,-0.017819678,0.30263475,0.5680813,0.10350999,0.4146217,0
1774626784910,0.19857846,-0.15510798,0.28940535,-0.025147397,0.29873773,0.5619361,0.14724734,0.40564877,0
1774626784927,0.36074498,-0.1409936,0.35079765,-0.028145099,0.31847262,0.5477802,0.27307513,0.40228012,0
1774626784946,0.37816665,-0.1787777,0.45799637,-0.013656202,0.3050829,0.5418015,0.38473213,0.38681096,0
1774626784965,0.49679708,-0.28504467,0.59699774,0.023748469,0.27981892,0.52204996,0.6844641,0.35139877,0
1774626784984,0.5440984,-0.3083024,0.59239006,0.06678216,0.25348908,0.503714,0.7420194,0.32244438,0
1774626785005,0.48179752,-0.27956963,0.55530405,0.11827603,0.22502756,0.49017438,0.6186506,0.30489755,0
1774626785028,0.43913183,-0.24861431,0.48978233,0.17071918,0.19964701,0.47262117,0.49453256,0.29237473,0
1774626785047,0.46102294,-0.238554,0.18583632,0.17796363,0.17649809,0.4421445,0.30398533,0.2583144,0
1774626785064,0.47425306,-0.24627733,-0.20192671,0.14262404,0.17051934,0.3966294,0.32634288,0.20673335,0
1774626785084,0.2963382,-0.2563157,-0.359807,0.10428675,0.18347608,0.38325632,0.28297517,0.19142461,0
1774626785106,0.12220575,-0.25246668,-0.3634758,0.078739665,0.21252048,0.4006763,0.21078834,0.21190639,0
1774626785128,0.18518074,-0.2653017,-0.34876204,0.080255166,0.26158288,0.3987944,0.22631186,0.23390347,0
1774626785144,0.3181471,-0.25666332,-0.35517406,0.0940446,0.27532235,0.37476283,0.29324225,0.22509396,0
1774626785166,0.20044951,-0.22425222,-0.5323925,0.06450057,0.19140333,0.36448735,0.37391084,0.1736466,0
1774626785183,0.031188315,-0.08646059,-0.59687805,0.02068415,0.12881796,0.3772276,0.36471155,0.15932256,0
1774626785204,0.09493696,-0.06746721,-0.56701565,-0.01573794,0.16369124,0.39161658,0.3350716,0.18040605,0
1774626785238,0.166886,-0.00575161,-0.5444722,-0.06380111,0.22720923,0.40480646,0.324334,0.21956289,0
1774626785243,0.21475163,-0.039141178,-0.395401,-0.08608403,0.2911769,0.41073525,0.20399225,0.26089787,0
1774626785263,0.20870188,-0.109600544,-0.11587763,-0.06926359,0.33112958,0.42169353,0.06899638,0.29226968,0
1774626785285,0.12617661,-0.06112051,-0.013511658,-0.058621746,0.34217113,0.45831546,0.01983882,0.33057064,0
1774626785305,0.045070723,-0.020354748,-0.043432236,-0.06936351,0.29335853,0.4859443,0.004332045,0.3270124,0
1774626785327,0.0678453,-0.0904603,0.18023586,-0.028678024,0.27129212,0.53382427,0.045271017,0.3593902,0
1774626785343,-0.0149002895,0.1025815,0.27543974,0.02606336,0.23168913,0.5809715,0.08661203,0.391887,0
1774626785363,0.24681543,-0.022414684,0.2034607,0.025946783,0.1622923,0.5809715,0.10281652,0.3645399,0
1774626785385,0.4564181,-0.025164127,-0.08190584,-0.019351838,0.17951244,0.5686809,0.21565928,0.35599715,0
1774626785405,0.5851579,0.0033373833,-0.26657057,-0.092995405,0.30808058,0.56500036,0.41348076,0.4227872,0
1774626785425,0.5187068,0.1411295,-0.3763609,-0.151384,0.50446343,0.5746763,0.4306218,0.60765326,0
1774626785443,0.45029196,0.1774168,-0.28517246,-0.18449196,0.62766904,0.5913635,0.3155629,0.7777165,0
1774626785464,0.40903378,0.12372589,0.07780838,-0.15261638,0.62217325,0.60012347,0.18867087,0.7705395,0
1774626785483,0.3793661,0.06579304,0.39457273,-0.06370118,0.5580224,0.61880916,0.303935,0.69837165,0
1774626785502,0.38045377,0.0663228,0.48982286,0.029177641,0.47964913,0.6254873,0.3890702,0.622149,0
1774626785522,0.42986488,0.116763115,0.20896244,0.05442496,0.4288547,0.6323488,0.24208274,0.5867434,0
1774626785548,0.54204196,0.14695549,-0.16815615,0.012040773,0.41852927,0.6331149,0.3436819,0.5761462,0
1774626785564,0.6150264,0.11886072,-0.2814679,-0.028028522,0.4499552,0.6426575,0.47160953,0.616254,0
1774626785586,0.66919196,0.029478073,-0.19210148,-0.030060299,0.48219717,0.65088457,0.4855898,0.65706843,0
1774626785602,0.6354092,-0.029017448,-0.027035713,-0.0042967075,0.462429,0.6593614,0.40531775,0.6486165,0
1774626785623,0.61370885,0.00625515,0.07843685,0.040169217,0.40225843,0.6536491,0.38283002,0.5906825,0
1774626785644,0.5820549,-0.016458988,0.08187151,0.081321016,0.35729286,0.6523501,0.34576175,0.559832,0
1774626785664,0.5927466,-0.016847134,-0.13621378,0.091330014,0.36856756,0.6461715,0.37018657,0.56172085,0
1774626785685,0.56824094,0.003487587,-0.27826834,0.07219468,0.40693817,0.6328484,0.40034318,0.57130784,0
1774626785704,0.54829997,0.018101692,-0.414917,0.040419027,0.5055459,0.6323488,0.47311664,0.65707535,0
1774626785724,0.5535177,0.006937027,-0.42704344,2.831164E-4,0.57689124,0.6145624,0.4887961,0.7104906,0
1774626785743,0.53513813,-0.026464462,-0.38109827,-0.031842265,0.5994573,0.59446114,0.43230906,0.713747,0
1774626785762,0.443609,-0.08511925,-0.07557058,-0.014105857,0.60035664,0.5891319,0.20974514,0.7077035,0
1774626785784,0.4103205,-0.09341669,0.03954792,0.013955972,0.60586905,0.5856013,0.17865361,0.7102009,0
1774626785801,0.4444873,-0.093550205,-0.0326643,0.011224732,0.61822623,0.5860176,0.20738757,0.7257463,0
1774626785824,0.4520285,-0.020541668,-0.15825367,-0.02150019,0.65586406,0.5864006,0.22979595,0.7744856,0
1774626785844,0.44942713,0.012001038,-0.17593384,-0.05365888,0.70414376,0.5935119,0.23308149,0.85095406,0
1774626785863,0.34278956,0.020469189,-0.010254383,-0.064550534,0.71693397,0.62277275,0.11802883,0.90600705,0
1774626785883,0.32125747,0.05245781,0.26418734,-0.03485662,0.73398757,0.65711313,0.17575313,0.97175044,0
1774626785903,0.4475091,0.054429054,0.3670063,-0.0012823506,0.7289581,0.6688208,0.33792055,0.9787028,0
1774626785926,0.50132334,0.034591675,0.39567757,0.03117611,0.71856606,0.6742167,0.4090824,0.9718773,0
1774626785943,0.39886954,0.040210724,0.34670544,0.06581623,0.7314895,0.70875686,0.28091848,1.041745,0
1774626785961,0.21068257,0.110194206,0.32854414,0.07181164,0.6947676,0.74532884,0.16447116,1.0433741,0
1774626785983,0.32812196,0.16432142,0.22962618,0.049678598,0.6600775,0.7523901,0.18739372,1.0042611,0
1774626786003,0.35617912,0.15517235,0.3219571,0.040069293,0.6290846,0.7622992,0.2545984,0.97845304,0
1774626786023,0.3045607,0.026347637,0.528584,0.06708193,0.62368876,0.78844583,0.37285244,1.0151345,0
1774626786043,0.3747973,-0.09913874,0.69372463,0.09810815,0.62252295,0.79535717,0.6315554,1.0297531,0
1774626786062,0.3490686,-0.12479925,0.63856316,0.121906586,0.6321156,0.8045335,0.54518664,1.0617055,0
1774626786082,0.20497622,-0.17469978,0.48818684,0.12507083,0.5909305,0.81176126,0.31086165,1.023798,0
1774626786102,0.24357727,-0.30515385,0.38025904,0.123055704,0.546781,0.7921763,0.2970457,0.94165546,0
1774626786123,0.46633777,-0.43164825,0.25330305,0.12215639,0.54867953,0.7301072,0.46795356,0.8490279,0
1774626786140,0.38386992,-0.53963184,0.026885986,0.091563165,0.57652485,0.67838013,0.4392815,0.80096436,0
1774626786160,0.07534732,-0.5937047,0.021281242,0.091679744,0.6150787,0.66327506,0.3586154,0.82666075,0
1774626786182,-0.22184826,-0.58200836,0.09472895,0.10909973,0.651151,0.6728344,0.39692396,0.88860655,0
1774626786199,-0.23229107,-0.5553603,-0.013990402,0.12079077,0.66898733,0.6609435,0.36257994,0.89898074,0
1774626786220,-0.15609898,-0.48083305,-0.10667229,0.12302239,0.6534659,0.62728596,0.2669463,0.8356399,0
1774626786241,-0.20107326,-0.3758483,-0.15652275,0.1123639,0.60157233,0.58769965,0.20619176,0.7199058,0
1774626786259,-0.38633725,-0.34631252,-0.19690084,0.08928158,0.56440085,0.5837027,0.30795875,0.66722834,0
1774626786279,-0.5856053,-0.29086304,-0.14002943,0.07274426,0.5505448,0.60383725,0.44714314,0.6730107,0
1774626786300,-0.54104793,-0.21894217,-0.15964174,0.04021918,0.5957768,0.608567,0.36615402,0.7269213,0
1774626786326,-0.41644168,-0.16476202,-0.2560463,-0.012174005,0.6514175,0.5946277,0.2661299,0.77807504,0
1774626786341,-0.34929883,-0.14988041,-0.16442633,-0.03590582,0.6926026,0.56926376,0.17150983,0.80504876,0
1774626786361,-0.47740078,-0.06221342,-0.008101463,-0.035206355,0.7145691,0.55222684,0.23184766,0.816803,0
1774626786382,-0.63939047,0.026769638,-0.005440712,-0.046214584,0.7024617,0.5448658,0.4095664,0.792467,0
1774626786399,-0.83949316,0.0275836,0.0038218498,-0.057339393,0.6496355,0.5573229,0.7055242,0.73592293,0
1774626786423,-0.9269061,-0.034977436,0.118881226,-0.041085184,0.6228061,0.5832697,0.8745111,0.729779,0
1774626786439,-0.89742273,-0.040616035,0.11171436,-0.029577335,0.62425494,0.6086003,0.8194973,0.76096344,0
1774626786461,-0.7870091,-0.03662777,0.09044838,-0.016537327,0.6511843,0.62613684,0.62890583,0.8163619,0
1774626786479,-0.65272236,-0.06963587,-0.047664165,-0.017969564,0.6867737,0.6388438,0.43316752,0.8801024,0
1774626786498,-0.6004014,-0.062678814,-0.14748383,-0.03036007,0.7062921,0.6415251,0.38616192,0.9113247,0
1774626786520,-0.52166724,-0.06892967,-0.17570877,-0.03309131,0.7265266,0.63306487,0.30776158,0.92970705,0
1774626786543,-0.55920076,-0.06498766,-0.11387873,-0.022216309,0.7336212,0.6317159,0.32989725,0.93775856,0
1774626786560,-0.686579,-0.11697245,-0.15828371,-0.016370788,0.73258865,0.6500352,0.51012695,0.95949984,0
1774626786580,-0.6325376,-0.098881245,-0.15043926,-0.021333652,0.71541846,0.6481533,0.43251327,0.93238145,0
1774626786598,-0.619815,-0.024218082,-0.20348024,-0.043400075,0.674683,0.64985204,0.42616135,0.87938833,0
1774626786618,-0.6403763,0.029236317,-0.07214737,-0.045348585,0.6463547,0.6532661,0.41614184,0.8465874,0
1774626786641,-0.58235365,-0.035382748,-0.038954735,-0.03855379,0.64773697,0.6583122,0.34190518,0.8544245,0
1774626786660,-0.44419122,-0.07515907,-0.015396118,-0.038570445,0.6626922,0.6540821,0.20319177,0.86847204,0
1774626786678,-0.4443913,-0.063840866,-0.12697172,-0.06992975,0.65649694,0.6542653,0.21768112,0.86394143,0
1774626786697,-0.39491808,-0.054326534,0.004005432,-0.071528524,0.6236221,0.6471208,0.15892771,0.8127862,0
1774626786718,-0.36993748,-0.077768326,0.262506,-0.04005264,0.5587385,0.6323654,0.21181107,0.71367896,0
1774626786739,-0.36386508,-0.15923929,0.24335766,-0.018768951,0.5025149,0.6255873,0.21697791,0.6442329,0
1774626786760,-0.35834074,-0.21204615,0.082583904,-0.036288857,0.4888754,0.6222565,0.18019176,0.6275192,0
1774626786779,-0.2594105,-0.2101779,-0.07454157,-0.08157083,0.5342739,0.6168773,0.117025,0.67264,0
1774626786798,-0.30254662,-0.16903353,-0.021421432,-0.11784303,0.59536046,0.61940867,0.120565675,0.7520082,0
1774626786817,-0.45461524,-0.1758542,0.10776901,-0.13857715,0.5900312,0.63444716,0.24921387,0.7698636,0
1774626786841,-0.5002411,-0.21913719,0.35291958,-0.1260201,0.5476137,0.6523001,0.4228145,0.74125725,0
1774626786859,-0.40859467,-0.22958994,0.4975276,-0.099706925,0.5110917,0.6600109,0.46719486,0.70677054,0
1774626786882,-0.2991612,-0.24800539,0.55121136,-0.05923794,0.5320756,0.6666891,0.45483807,0.7310879,0
1774626786906,-0.3376823,-0.2503338,0.37730742,-0.03459016,0.5709625,0.682044,0.31905723,0.79237866,0
1774626786922,-0.4879889,-0.21343803,0.14340544,-0.037254784,0.5706127,0.7056926,0.30425408,0.82498884,0
1774626786939,-0.49990737,-0.22923851,0.01885748,-0.041834608,0.5536924,0.71303695,0.3028133,0.8167471,0
1774626786958,-0.4183107,-0.2160635,-0.05111313,-0.047696784,0.54444945,0.705093,0.22427982,0.79585636,0
1774626786977,-0.48776662,-0.20540667,-0.08887625,-0.05169372,0.5248811,0.708607,0.28800717,0.7802963,0
1774626786999,-0.574574,-0.21002865,0.04624796,-0.03817075,0.4964529,0.7167174,0.3763862,0.76160634,0
1774626787024,-0.47760493,-0.2536397,0.15562391,-0.016104326,0.48253024,0.7137197,0.31665838,0.74249065,0
1774626787038,-0.5139666,-0.22053719,0.17234898,-0.01147454,0.4729709,0.72314584,0.3425025,0.74677306,0
1774626787061,-0.40866262,-0.2471447,0.14394903,-0.00882657,0.46369466,0.72214663,0.24880695,0.7365864,0
1774626787078,-0.15832543,-0.2818966,0.1448102,-0.010591883,0.46459398,0.6932688,0.12550262,0.69658136,0
1774626787097,-0.12095511,-0.26507092,0.059129238,-0.031109495,0.46196267,0.6713855,0.088388994,0.66513586,0
1774626787122,-0.08753675,-0.27317572,0.01839447,-0.039136678,0.47801703,0.6630752,0.08262601,0.6697007,0
1774626787138,0.025270104,-0.34153032,0.07311058,-0.059171323,0.42324233,0.63796115,0.1226267,0.58962977,0
1774626787156,0.11550853,-0.34180975,0.09409571,-0.064433955,0.37651148,0.6073346,0.13903013,0.51476794,0
1774626787176,0.30267012,-0.31760883,0.19869614,-0.05349234,0.34267074,0.55915487,0.23196472,0.43293884,0
1774626787198,0.5199088,-0.3964529,0.2715435,-0.048013207,0.32923105,0.5092764,0.50121593,0.3700608,0
1774626787224,0.6470879,-0.43269634,0.3019662,-0.04243415,0.3571763,0.4647605,0.69713247,0.3453779,0
1774626787238,0.7261951,-0.44492579,0.49880266,-0.00836026,0.38323966,0.4213771,0.97412235,0.32450122,0
1774626787255,0.5305572,-0.19326782,0.65028286,0.020317763,0.39932734,0.3972123,0.7417112,0.31765273,0
1774626787275,0.3674702,-0.19656515,0.5566726,0.036821783,0.4234755,0.39837804,0.48355657,0.33939242,0
1774626787300,0.18030041,-0.107512474,0.5179434,0.06674885,0.44657445,0.43396744,0.3123325,0.39221188,0
1774626787322,-0.12963974,-0.022623062,0.34302187,0.06251876,0.43351778,0.50582904,0.13498227,0.44770926,0
1774626787339,-0.1492185,0.007353306,0.15523577,0.0415848,0.42447472,0.5608202,0.046418376,0.49642742,0
1774626787355,0.078452796,-0.07510185,0.14777613,0.035772588,0.41897893,0.5723614,0.03363291,0.50442064,0
1774626787375,0.36589932,-0.21732283,-0.016374588,0.001232389,0.44769028,0.5490459,0.18137966,0.5018795,0
1774626787398,0.45958406,-0.26253033,-0.1362338,-0.031758998,0.46779153,0.5183028,0.29869932,0.48847532,0
1774626787420,0.52736306,-0.24303341,0.20771551,-0.0025313934,0.44156164,0.4855779,0.38032278,0.430769,0
1774626787437,0.20004302,-0.22172976,0.32460546,0.037304748,0.4005264,0.51387286,0.19455001,0.42587838,0
1774626787455,0.13051632,-0.21939564,0.18238592,0.049079057,0.35875842,0.53978634,0.098433584,0.42248565,0
1774626787475,0.32395658,-0.23109722,0.13074303,0.055873852,0.36846766,0.5410187,0.17544752,0.43159157,0
1774626787495,0.41293094,-0.2633705,0.059840202,0.056523353,0.3975287,0.5333413,0.24345684,0.44567686,0
1774626787514,0.36263272,-0.3177309,-0.102897644,0.029760528,0.41018566,0.5350733,0.24304336,0.45544136,0
1774626787536,0.39005294,-0.30909252,-0.13474798,0.002614663,0.42161027,0.53682196,0.2658365,0.46593988,0
1774626787554,0.31066152,-0.23938274,-0.11375666,-0.009442764,0.45883173,0.56410104,0.16675524,0.5288257,0
1774626787574,0.30949527,-0.18802834,4.5251846E-4,-0.01552144,0.4749194,0.58115464,0.13114218,0.5635301,0
1774626787594,0.42741412,-0.19204712,0.047871113,-0.023148928,0.4669422,0.57769066,0.22185656,0.55229735,0
1774626787614,0.3662469,-0.15362978,0.11089134,-0.024880935,0.4460915,0.5921462,0.1700358,0.5502538,0
1774626787636,0.2682979,-0.14985561,0.22147894,-0.003513974,0.4235754,0.6238386,0.1434934,0.5686031,0
1774626787656,0.29963776,-0.1288023,0.2744913,0.016687213,0.41081852,0.6570632,0.18171829,0.60078233,0
1774626787674,0.40046725,-0.10831642,0.05401516,-0.014155819,0.40257484,0.6737171,0.17502409,0.6161616,0
1774626787694,0.38360965,-0.099298954,-0.09995937,-0.06298507,0.42186007,0.6980484,0.16700852,0.6692046,0
1774626787714,0.35561985,-0.13400316,-0.0376544,-0.0902142,0.45200363,0.72351223,0.14584018,0.7359158,0
1774626787735,0.3955627,-0.17594528,0.08361006,-0.09775842,0.4731874,0.73733497,0.19441724,0.77712584,0
1774626787756,0.4172256,-0.19806242,0.15658045,-0.09792496,0.49946725,0.75234014,0.23782335,0.8250725,0
1774626787776,0.419657,-0.19002724,0.16359997,-0.09760854,0.51488876,0.76378137,0.23898728,0.8579998,0
1774626787794,0.400104,-0.16213083,0.2663746,-0.07157848,0.54093546,0.779969,0.25732502,0.9060862,0
1774626787813,0.4667393,-0.15783882,0.34000206,-0.040951952,0.5582056,0.7658465,0.35836005,0.8997914,0
1774626787835,0.7533789,-0.2040143,0.43166685,0.0043133614,0.57494277,0.7113216,0.79553795,0.8365562,0
1774626787855,0.57031894,-0.17478609,0.38561964,0.031525843,0.6000735,0.70396054,0.50451636,0.85664254,0
1774626787873,0.13435191,-0.1434803,0.117201805,0.026496362,0.62242305,0.748643,0.052373298,0.94857883,0
1774626787895,0.10045521,-0.17186546,-0.08008003,-0.009376149,0.62002486,0.7740735,0.046041798,0.9837085,0
1774626787918,0.23489207,-0.2017169,-0.15515757,-0.05096095,0.6361625,0.78181756,0.11993786,1.0185385,0
1774626787935,0.20025581,-0.25429058,-0.006898403,-0.06390103,0.67454976,0.803451,0.10481367,1.1046343,0
1774626787955,0.18072832,-0.33397198,0.16937637,-0.05574062,0.70187885,0.8261003,0.17288837,1.1781826,0
1774626787972,0.23691788,-0.39150858,0.2515502,-0.040335756,0.7243616,0.837375,0.27268654,1.2275236,0
1774626787992,0.24114406,-0.37303734,0.21505833,-0.034873277,0.7409822,0.8458019,0.2435574,1.2656516,0
1774626788012,0.17056271,-0.39501524,0.14252138,-0.036305513,0.7556876,0.8596746,0.20544101,1.3114222,0
1774626788034,0.10960122,-0.46376324,0.16839981,-0.022382848,0.77980244,0.8786101,0.25544727,1.3805485,0
1774626788055,0.041293442,-0.5092716,0.20670128,-4.9961713E-4,0.77665484,0.89398164,0.30378813,1.4023962,0
1774626788075,-0.15930331,-0.46658993,0.22772455,0.014189127,0.7688608,0.9298874,0.29494217,1.456039,0
1774626788092,-0.38950992,-0.41926193,-0.054152012,-0.02652967,0.77755415,0.9797992,0.33043098,1.5653007,0
1774626788114,-0.3944948,-0.35946274,-0.27155113,-0.09624292,0.8556943,1.0212175,0.35857964,1.7843604,0
1774626788135,-0.47758275,-0.28181553,-0.25237894,-0.16627258,0.8988945,1.0633519,0.3712004,1.966375,0
1774626788154,-0.58236086,-0.32320976,-0.06197691,-0.22832504,0.8935486,1.1095165,0.44744986,2.0815883,0
1774626788174,-0.50960386,-0.4125104,0.4988718,-0.21105494,0.90986943,1.1346972,0.678734,2.1599443,0
1774626788194,-0.39567024,-0.5706959,0.93845177,-0.13641213,0.9406958,1.1473042,1.3629404,2.2198238,0
1774626788216,-0.49858516,-0.65092325,1.1067333,-0.052859493,0.96326184,1.1873901,1.8971469,2.3405628,0
1774626788234,-0.6805802,-0.6772957,0.99799585,0.019801494,0.9720218,1.2391504,1.9179146,2.4807122,0
1774626788252,-0.6366421,-0.5977893,0.85539055,0.07054594,0.97934955,1.2514744,1.4943581,2.5302904,0
1774626788274,-0.69468695,-0.4477992,0.39075422,0.03372416,0.97643507,1.2465281,0.8358029,2.5083952,0
1774626788294,-0.81875855,-0.42447805,-0.08671188,-0.07371018,1.0259138,1.2504251,0.85806614,2.6214952,0
1774626788315,-0.8994868,-0.5214009,-0.19243813,-0.18071152,1.1180099,1.2622827,1.117968,2.8759606,0
1774626788333,-0.8077245,-0.6288719,0.31099606,-0.18723986,1.1920365,1.2747232,1.1446173,3.0809288,0
1774626788351,-0.8795696,-0.72979736,0.8447137,-0.1121807,1.201446,1.3090302,2.019788,3.1696172,0
1774626788371,-0.9466996,-0.89811707,1.099143,-0.0030476646,1.184559,1.3546453,2.9109697,3.238253,0
1774626788395,-0.83483845,-0.921329,0.85352993,0.058521822,1.1864241,1.4010264,2.2743158,3.3739018,0
1774626788412,-0.6522713,-0.84840393,0.37159824,0.05292611,1.2160182,1.4369655,1.2833322,3.546371,0
1774626788439,-0.48714966,-0.83706903,0.08514595,0.017320061,1.2564706,1.4556512,0.9452492,3.6979384,0
1774626788450,-0.13905418,-0.8059149,0.07837057,-0.01970157,1.3217038,1.4501388,0.6749768,3.8501916,0
1774626788473,-0.122458756,-0.68238735,-0.11870289,-0.097125575,1.3739638,1.4583158,0.49473903,4.0238953,0
1774626788493,-0.053507626,-0.5977659,-0.107568264,-0.1863572,1.3487997,1.4579161,0.3717581,3.979509,0
1774626788515,0.2165699,-0.5636444,0.21162271,-0.23245521,1.3277658,1.453303,0.40938175,3.9290872,0
1774626788532,0.50558794,-0.542408,0.52729654,-0.25235662,1.2798526,1.430737,0.82786727,3.7487152,0
1774626788550,0.960289,-0.54993725,0.8522992,-0.22329555,1.2285585,1.3729979,1.951,3.4443402,0
1774626788570,1.1327676,-0.4843855,0.911427,-0.21053867,1.1594782,1.3324623,2.3484907,3.1641722,0
1774626788593,1.1909438,-0.45488834,0.845397,-0.2181828,1.0759422,1.3149923,2.3399668,2.9344602,0
1774626788616,1.392317,-0.40495396,0.9697194,-0.18992113,1.0257473,1.2962234,3.0428903,2.7684226,0
1774626788632,1.66188,-0.4008484,1.0783467,-0.12523736,0.9901912,1.2599845,4.085356,2.583724,0
1774626788650,1.9069462,-0.3600979,1.0260406,-0.054474924,0.9155984,1.2079743,4.8188734,2.30049,0
1774626788672,1.94051,-0.29298687,0.8367872,-8.326952E-5,0.78579783,1.1569301,4.5516334,1.9559655,0
1774626788694,1.8673055,-0.13279057,0.66002035,0.044199463,0.6326485,1.109683,3.9400902,1.6335942,0
1774626788711,1.7742562,-0.03471613,0.34299803,0.059004784,0.51453906,1.0566403,3.266838,1.3847207,0
1774626788731,1.7320735,0.011408329,0.14991331,0.0612031,0.44209456,0.97643507,3.022683,1.1526189,0
1774626788749,1.583507,0.018616676,-0.047955513,0.03573928,0.40467322,0.8811581,2.5101407,0.9414773,0
1774626788769,1.2284561,0.046496868,-0.09819889,0.019801494,0.3620559,0.7984215,1.5209095,0.7689535,0
1774626788789,1.0929875,0.10492611,-0.026337624,0.030093607,0.31251052,0.7314395,1.2063249,0.63357216,0
1774626788809,0.98505485,0.16227436,-0.06529331,0.045964777,0.23488668,0.6767481,1.0009292,0.5152725,0
1774626788835,1.0296184,0.25269556,-0.16938019,0.049995024,0.12042438,0.60283804,1.1526587,0.38041523,0
1774626788852,1.1637099,0.29424,-0.2675128,0.037521247,0.04396631,0.4965195,1.5123609,0.2498725,0
1774626788873,1.0078723,0.24111795,-0.39066792,0.006811447,0.05136064,0.3943145,1.226566,0.15816823,0
1774626788889,0.8504823,0.30843496,-0.48469925,-0.027062595,0.054658115,0.31189433,1.0533856,0.10099797,0
1774626788909,0.61879534,0.2922306,-0.38677406,-0.03822071,-2.3315467E-4,0.24786006,0.61790055,0.062895484,0
1774626788932,0.49891102,0.24172497,-0.2465725,-0.016454058,-0.063751146,0.18390907,0.36814117,0.038157493,0
1774626788951,0.4146949,0.17880678,-0.20172739,0.014388974,-0.11352967,0.11203082,0.24463767,0.025646932,0
1774626788971,0.35654557,0.19558239,-0.28395033,0.024531202,-0.15321593,0.04270061,0.246005,0.025900243,0
1774626788989,0.08622229,0.27884293,-0.39340448,0.014239089,-0.16863744,-0.008610069,0.23995474,0.02871547,0
1774626789009,0.014480948,0.30727053,-0.40708685,-0.0046464396,-0.17751397,-0.07510911,0.26034456,0.037174176,0
1774626789033,-0.0465858,0.27710533,-0.38247633,-0.021000573,-0.17056929,-0.13947645,0.22524574,0.04898859,0
1774626789051,-0.1577416,0.22295427,-0.31676197,-0.027995214,-0.18037844,-0.19978024,0.17492917,0.073232256,0
1774626789068,-0.22860157,0.1696763,-0.22083569,-0.029693913,-0.19301876,-0.25039145,0.12981713,0.100833856,0
1774626789088,-0.38429374,0.17452335,-0.17670727,-0.03578924,-0.2062253,-0.2804684,0.20936553,0.12247227,0
1774626789108,-0.59730226,0.1799984,-0.1668334,-0.05920463,-0.23160586,-0.2874131,0.41700277,0.13975275,0
1774626789131,-0.56089866,0.12584972,-0.024359226,-0.054957885,-0.24079882,-0.30286792,0.33103883,0.15273342,0
1774626789151,-0.34038132,0.018137932,0.24655056,-0.0099756885,-0.21082178,-0.3346269,0.17697561,0.1565205,0
1774626789170,-0.29836106,0.034902573,0.23738432,0.015987748,-0.19738208,-0.35434514,0.14658883,0.16477577,0
1774626789187,-0.39285666,0.1185832,0.09747505,0.023315467,-0.21147129,-0.36092344,0.1778997,0.17552945,0
1774626789209,-0.33772147,0.13139439,-0.005343437,0.02418147,-0.24261409,-0.37844333,0.13134882,0.20266569,0
1774626789230,-0.22792292,0.13622141,-0.09854269,0.01543817,-0.28449866,-0.41091844,0.08021579,0.2500318,0
1774626789252,-0.18685812,0.15410376,-0.1534915,0.0011824273,-0.32943088,-0.4519703,0.082223564,0.31280327,0
1774626789268,-0.04784119,0.09047794,-0.008011341,0.01803618,-0.3352431,-0.50046647,0.010539219,0.36317992,0
1774626789287,-0.08118451,0.05973625,0.062322617,0.035289623,-0.35757598,-0.5397531,0.014043452,0.42043933,0
1774626789310,-0.20952702,0.036440372,0.0947423,0.050128255,-0.41753006,-0.5620859,0.054205574,0.4927848,0
1774626789331,-0.17277783,-0.0072250366,0.0025410652,0.046131317,-0.4814977,-0.6031545,0.029910838,0.5977635,0
1774626789349,-0.08721161,-0.019472599,-0.10138559,0.023265505,-0.52576375,-0.6535825,0.018264085,0.7041389,0
1774626789369,0.025380373,-0.0867939,-0.14468765,-0.0077940277,-0.55071133,-0.71751684,0.029111862,0.8181741,0
1774626789389,0.16792595,-0.18543386,-0.06892109,-0.026513016,-0.5625356,-0.7891786,0.067334965,0.9399521,0
1774626789409,0.26421523,-0.23536062,0.06495428,-0.030226838,-0.5839192,-0.86865103,0.12942336,1.09643,0
1774626789431,0.07734573,-0.21835089,0.16940498,-0.032525077,-0.6396265,-0.917447,0.08235752,1.2518889,0
1774626789447,0.041139483,-0.2605033,0.32654905,-0.024697741,-0.7564037,-0.9725214,0.1761887,1.5185544,0
1774626789469,0.19923508,-0.34668446,0.5664511,0.0036472052,-0.8322456,-1.0328919,0.48075157,1.7595116,0
1774626789490,0.16886544,-0.44705296,0.60978556,0.032724924,-0.8732309,-1.0803055,0.6002103,1.930663,0
1774626789512,0.18663216,-0.548501,0.53709555,0.046264548,-0.9113017,-1.1479536,0.6241566,2.1504087,0
1774626789529,0.39510584,-0.6009064,0.5232339,0.053842075,-0.97718453,-1.2402996,0.7909708,2.4961317,0
1774626789546,0.29052532,-0.63632345,0.54016256,0.04576493,-1.0848354,-1.303218,0.78108805,2.8773394,0
1774626789567,0.19420111,-0.75965977,0.5879173,0.041551493,-1.1768149,-1.3522971,0.96044385,3.2153273,0
1774626789588,0.24543023,-0.84515524,0.6599879,0.03778771,-1.2526568,-1.4171307,1.2101074,3.5788364,0
1774626789608,0.33942616,-0.9272394,0.5889735,0.014205781,-1.2916769,-1.4883595,1.3218728,3.8838449,0
1774626789630,0.27787566,-1.0475078,0.4977169,-0.024980858,-1.2900448,-1.5473475,1.4222095,4.059124,0
1774626789647,0.17556429,-1.1458368,0.52794075,-0.043699846,-1.2890621,-1.5973426,1.6224864,4.2150946,0
1774626789668,0.25954664,-1.1248097,0.62730646,-0.05242649,-1.3470345,-1.681628,1.7260748,4.645123,0
1774626789688,0.10685134,-1.0416136,0.59876156,-0.07277756,-1.4104859,-1.7345542,1.4548913,5.003445,0
1774626789708,-0.010987043,-1.055304,0.60869884,-0.091579825,-1.46148,-1.772575,1.4843017,5.286333,0
1774626789733,0.17134774,-1.1456809,0.798203,-0.094627485,-1.5131072,-1.8498658,1.9790728,5.7204514,0
1774626789746,0.11765444,-1.213903,0.8495264,-0.08771612,-1.5167544,-1.9091537,2.209098,5.953106,0
1774626789769,-0.062365532,-1.175983,0.75346804,-0.09894085,-1.5358564,-1.9444766,1.9545394,6.1496334,0
1774626789788,-0.091018796,-1.2178926,0.8759575,-0.12077412,-1.6212243,-1.9975526,2.2588484,6.633171,0
1774626789808,-0.23870796,-1.2888484,1.0839348,-0.12770215,-1.6479205,-2.023283,2.8930264,6.825624,0
1774626789830,-0.2695129,-1.3317342,1.0840893,-0.15146726,-1.6196423,-2.0473979,3.0214028,6.8380213,0
1774626789847,-0.2379309,-1.3581829,1.1197014,-0.17876302,-1.5681983,-2.0804057,3.155003,6.81929,0
1774626789867,-0.14244032,-1.464632,1.4057417,-0.1699531,-1.5513945,-2.1313334,4.1415462,6.978291,0
1774626789885,-0.31207633,-1.553144,1.5338535,-0.16154288,-1.5641015,-2.146605,4.8623543,7.0804224,0
1774626789907,-0.6458062,-1.4984035,1.5790501,-0.15618032,-1.6168443,-2.127603,5.155678,7.1652727,0
1774626789927,-0.72465456,-1.4181848,1.5733185,-0.15674655,-1.6376117,-2.1062694,5.0117035,7.1427126,0
1774626789946,-0.6366658,-1.4093237,1.7361426,-0.13211542,-1.6054697,-2.091081,5.405728,6.9676065,0
1774626789965,-0.6855457,-1.3978386,1.7756572,-0.11626091,-1.5694973,-2.0733113,5.5768843,6.7754583,0
1774626789985,-0.87551874,-1.358788,1.8403711,-0.074709415,-1.5353734,-2.0421517,5.999804,6.5333366,0
1774626790005,-0.9429335,-1.4183197,2.0294075,-0.0038137443,-1.548863,-2.0201519,7.0192494,6.4800053,0
1774626790029,-0.96777874,-1.4640837,2.1244059,0.07359361,-1.5595549,-2.0073617,7.593237,6.4671288,0
1774626790045,-1.1346437,-1.4662743,2.01761,0.14615467,-1.5333916,-1.9976525,7.5081267,6.3632665,0
1774626790065,-1.0878888,-1.5868349,1.8904891,0.1904374,-1.542368,-2.0270967,7.2754965,6.5242867,0
1774626790084,-1.0080059,-1.631484,1.7214603,0.19659935,-1.5492462,-2.069048,6.6412416,6.7197742,0
1774626790104,-1.1624823,-1.6248102,1.5110717,0.17138533,-1.52245,-2.0790403,6.2747107,6.669636,0
1774626790132,-1.1809121,-1.6320462,1.522717,0.15011829,-1.4791665,-2.0758426,6.376796,6.5195913,0
1774626790146,-1.1343997,-1.6460915,1.7393289,0.15469812,-1.4130172,-2.0633855,7.0217447,6.2781086,0
1774626790166,-1.0761116,-1.7631788,1.9862537,0.21713361,-1.3589087,-2.0458157,8.21202,6.0791416,0
1774626790184,-1.1112617,-1.8873,2.1782923,0.31808957,-1.3662198,-2.0165548,9.541761,6.034231,0
1774626790204,-1.2816266,-1.8271074,1.9837756,0.39148334,-1.4488564,-1.9825641,8.916254,6.1830044,0
1774626790223,-1.2770617,-1.7017694,1.4703512,0.38234034,-1.5502954,-1.955718,6.688838,6.374433,0
1774626790244,-1.0187261,-1.7483678,0.95258904,0.31296018,-1.5379381,-1.9501222,5.002019,6.2661743,0
1774626790263,-0.9738294,-1.6538377,0.9744358,0.2863639,-1.4994177,-1.9347508,4.633048,6.0735183,0
1774626790283,-0.8904652,-1.5608969,1.0041122,0.26907715,-1.4801991,-1.9316531,4.237569,5.9946756,0
1774626790303,-0.7487955,-1.50877,0.8675761,0.237951,-1.4459586,-1.9618133,3.58977,5.996128,0
1774626790325,-0.9083026,-1.5586371,0.80265474,0.20697473,-1.4121178,-1.9630125,3.898618,5.890333,0
1774626790345,-1.0668898,-1.6710048,0.6945076,0.14565505,-1.3998274,-1.9654772,4.4128513,5.843833,0
1774626790365,-0.8936331,-1.780396,0.9943061,0.15902814,-1.3833066,-1.9854618,4.9570346,5.880886,0
1774626790383,-1.1114061,-1.7742348,1.3558464,0.2488593,-1.3587254,-1.9767852,6.2214518,5.8157454,0
1774626790405,-1.3888943,-1.7288175,1.2182555,0.31960508,-1.332329,-1.9407128,6.4019837,5.6436143,0
1774626790427,-1.4921862,-1.5664368,0.89442015,0.36803463,-1.3104458,-1.8777444,5.480331,5.378642,0
1774626790444,-1.659619,-1.3567181,0.8223276,0.40970272,-1.3440701,-1.802502,5.271242,5.2233944,0
1774626790462,-1.713089,-1.1896887,1.0115666,0.46772492,-1.4204948,-1.7471944,5.3732996,5.289261,0
1774626790485,-1.7545779,-1.0264711,0.99911547,0.5178032,-1.4851452,-1.6981654,5.1304183,5.357542,0
1774626790507,-2.0203803,-0.8752556,0.82023525,0.53220886,-1.5422848,-1.6231562,5.5207944,5.296525,0
1774626790526,-2.0337238,-0.75880957,0.39222193,0.47656813,-1.5819877,-1.5527269,4.8656626,5.1407633,0
1774626790548,-1.7972455,-0.5628152,0.07391882,0.3678681,-1.6107323,-1.4987183,3.5523164,4.9759417,0
1774626790563,-1.770648,-0.43786097,-0.21408844,0.19428445,-1.6125144,-1.4514878,3.3727503,4.7447658,0
1774626790584,-1.4420193,-0.5732856,-0.25411272,0.04235088,-1.5015327,-1.4455256,2.4726496,4.345938,0
1774626790602,-0.8661758,-0.6946769,0.36119223,-0.0028478177,-1.2822508,-1.48333,1.3632963,3.8444433,0
1774626790624,-1.0638726,-0.625299,0.77961683,0.03194219,-1.1491028,-1.4669592,2.1306262,3.473427,0
1774626790643,-1.5368228,-0.44060707,1.1480031,0.13216539,-1.1877898,-1.4042073,3.87387,3.4001107,0
1774626790664,-1.7175204,-0.25652075,1.295578,0.2501916,-1.3482502,-1.340323,4.6942015,3.6768398,0
1774626790684,-1.7518873,-0.08046198,0.9848695,0.3132433,-1.4700902,-1.2803855,4.0455513,3.8986735,0
1774626790704,-1.6257241,-0.059479237,0.33924723,0.30173546,-1.4653105,-1.2311733,2.7616053,3.7539666,0
1774626790728,-1.2044439,-0.13816023,0.1268692,0.28205052,-1.3864542,-1.231423,1.4858692,3.5182104,0
1774626790743,-1.0241661,-0.18996477,-0.06345463,0.261433,-1.251824,-1.2382178,1.0890293,3.168594,0
1774626790761,-1.2146888,-0.1894579,-0.1948204,0.25074118,-1.1541822,-1.2116882,1.5493182,2.863196,0
1774626790783,-1.3216928,-0.1643529,-0.24305153,0.25330588,-1.154532,-1.1858413,1.8329579,2.8033276,0
1774626790803,-1.2050896,-0.13334131,-0.24871683,0.25518778,-1.1681548,-1.1898549,1.5318809,2.8454611,0
1774626790828,-1.3967476,-0.061324596,-0.6280031,0.20932293,-1.1190758,-1.15708,2.3490524,2.634981,0
1774626790843,-1.6146295,-0.014827728,-1.0179195,0.11176436,-1.0580726,-1.1047701,3.6434085,2.3525257,0
1774626790863,-1.4851296,0.028075218,-1.0880141,0.01880226,-1.0093099,-1.081388,3.3901727,2.1884599,0
1774626790883,-1.479662,0.05067253,-0.91593695,-0.035239663,-0.967875,-1.0419682,3.0309076,2.0237217,0
1774626790903,-1.6279066,-0.018468857,-0.67609787,-0.053758804,-0.9517207,-0.9686244,3.1075292,1.8468956,0
1774626790924,-1.6409669,-0.06402826,-0.49860287,-0.041534837,-0.92517436,-0.87393034,2.9454768,1.621427,0
1774626790943,-1.456035,-0.11938524,-0.4405346,-0.021816615,-0.8887523,-0.7998204,2.3283617,1.4300692,0
1774626790960,-1.235512,-0.09838343,-0.37205267,0.008077144,-0.83127964,-0.7404326,1.6745925,1.2393316,0
1774626790983,-1.248059,-0.027379513,-0.513021,-0.009775843,-0.7881294,-0.6694703,1.8215915,1.0694339,0
1774626791000,-1.1647457,0.103187084,-0.6292496,-0.060353752,-0.7325553,-0.60185546,1.7632351,0.90250987,0
1774626791023,-1.0316274,0.18278313,-0.3618436,-0.06743166,-0.63178253,-0.53578943,1.2285956,0.6907665,0
1774626791042,-1.0208716,0.2024808,-0.19487333,-0.061519526,-0.5794893,-0.45984763,1.121153,0.55105233,0
1774626791063,-0.8234118,0.23022127,-0.10145569,-0.046197932,-0.5460482,-0.4047898,0.7413021,0.4641577,0
1774626791082,-0.63770807,0.264863,-0.19305849,-0.047030628,-0.49806833,-0.35944122,0.51409554,0.3794819,0
1774626791103,-0.46560693,0.30297756,-0.4836316,-0.101838626,-0.44734055,-0.32703272,0.54248476,0.31743506,0
1774626791124,-0.42391658,0.3436122,-0.62013865,-0.16335815,-0.4061721,-0.29822147,0.6823466,0.2805977,0
1774626791143,-0.41884863,0.3759346,-0.48003674,-0.20147894,-0.36730188,-0.2631317,0.54719627,0.24474275,0
1774626791160,-0.3510037,0.29334784,-0.3320341,-0.20932293,-0.34425285,-0.2245779,0.31950322,0.21276136,0
1774626791183,-0.4005561,0.29115343,-0.0011005402,-0.16315831,-0.31316003,-0.16708863,0.24521671,0.15260845,0
1774626791204,-0.41443068,0.34479427,-0.07930565,-0.12743568,-0.2970557,-0.112913474,0.29692528,0.11723139,0
1774626791225,-0.34201413,0.41244555,-0.14287281,-0.10268798,-0.3223197,-0.066565655,0.30749765,0.11886579,0
1774626791241,-0.24732566,0.50614023,-0.36346006,-0.10158882,-0.30803064,-0.03174234,0.44945115,0.106210746,0
1774626791259,-0.09603429,0.5712185,-0.44326544,-0.092062786,-0.22442803,-0.010941615,0.53199744,0.058963217,0
1774626791279,-0.0060954094,0.64032745,-0.44935274,-0.07077909,-0.14923564,0.0014322358,0.6119743,0.027283007,0
1774626791300,-0.09948945,0.68331385,-0.3859663,-0.03322454,-0.1281518,0.023698507,0.62578595,0.018088374,0
1774626791320,-0.011767387,0.73330307,-0.44904566,-0.009909074,-0.15836199,0.025963437,0.7395139,0.025850808,0
1774626791342,0.18588388,0.785007,-0.5841298,0.004379977,-0.17618166,0.008793262,0.9919964,0.031136483,0
1774626791361,0.17527401,0.8726573,-0.60377026,0.031159457,-0.139643,0.011374617,1.1567903,0.020600459,0
1774626791379,0.008975565,0.9090066,-0.7666602,0.03407389,-0.10272128,0.029910414,1.4141414,0.012607324,0
1774626791399,-0.012101114,0.85883474,-0.8921399,0.015704632,-0.07885624,0.04026914,1.5336572,0.008086545,0
1774626791419,0.09436095,0.8073025,-0.981699,-0.023098966,-0.036355473,0.03347435,1.6243742,0.0029758145,0
1774626791440,0.1193527,0.78793144,-1.046267,-0.07997205,0.01885222,0.023615237,1.7297558,0.0073086144,0
1774626791460,0.112327814,0.7750654,-0.85689545,-0.105735645,0.043849733,0.015987748,1.3476138,0.013358434,0
1774626791479,-0.07597113,0.7683587,-0.5976596,-0.105119444,0.08431872,0.034523543,0.95334375,0.019351618,0
1774626791498,-0.20937341,0.7075958,-0.36894464,-0.074109875,0.12778541,0.061885912,0.6806492,0.025651252,0
1774626791521,-0.29973418,0.6841035,-0.17422676,-0.026962671,0.14090869,0.09501053,0.5881931,0.029609244,0
1774626791540,-0.48113757,0.6974797,-0.13347816,0.017769717,0.12099062,0.1362789,0.73578775,0.03352643,0
1774626791561,-0.5229796,0.68038416,-0.19956446,0.039053407,0.11945846,0.16918702,0.77625626,0.044419743,0
1774626791580,-0.43529665,0.61269045,-0.41065264,0.02661294,0.18057829,0.1908371,0.73350835,0.06973557,0
1774626791599,-0.34538472,0.5652323,-0.4734769,2.3315467E-4,0.26702872,0.20747435,0.66295844,0.11434999,0
1774626791618,-0.3091234,0.5441146,-0.41597223,-0.023365429,0.33144602,0.22940753,0.56465083,0.16303022,0
1774626791644,-0.3091234,0.5441146,-0.41597223,-0.01262366,0.34923238,0.24999176,0.56465083,0.1846185,0
1774626791659,-0.22001857,0.42190552,0.07578468,0.025214013,0.3452188,0.2872632,0.23215576,0.20233193,0
1774626791678,-0.13366777,0.37780476,0.1278367,0.06196918,0.34298718,0.32605016,0.17694573,0.22778909,0
1774626791700,0.09518349,0.35598946,0.16332483,0.10197186,0.33486006,0.3448191,0.16246338,0.24142973,0
1774626791725,0.37427315,0.32995892,0.0037436485,0.12800191,0.34916577,0.3413551,0.2489673,0.25482452,0
1774626791740,0.48084372,0.31425238,-0.20408821,0.13228196,0.37123218,0.3400061,0.37161723,0.27091601,0
1774626791760,0.48943377,0.337152,-0.5077281,0.09949043,0.3783434,0.3391068,0.6110047,0.2680355,0
1774626791780,0.44621855,0.40133095,-0.6738105,0.061186448,0.36278868,0.3407389,0.8141981,0.2514624,0
1774626791797,0.3578202,0.42884016,-0.7021494,0.036138974,0.3235021,0.34924904,0.804953,0.22793451,0
1774626791819,0.2706024,0.39593267,-0.6828799,0.026046706,0.3117278,0.3655532,0.6963133,0.23148179,0
1774626791843,0.18065006,0.417336,-0.7303071,0.0058455206,0.30813053,0.37801033,0.74015224,0.2378704,0
1774626791859,0.083589196,0.4952941,-0.8084359,-0.017170176,0.3411719,0.3783434,0.905872,0.2598368,0
1774626791877,-0.24048203,0.6926279,-0.83658457,-0.05918798,0.3722814,0.38735318,1.2374387,0.29213914,0
1774626791897,-0.63423145,0.63251543,-0.76784897,-0.1032209,0.4361158,0.43534973,1.3919172,0.39038092,0
1774626791920,-0.9726132,0.5499215,-0.45913363,-0.10368721,0.54073566,0.5086269,1.459194,0.5618474,0
1774626791943,-1.3024321,0.42191315,-0.107969284,-0.053242534,0.6306168,0.59935737,1.8859973,0.75974154,0
1774626791959,-1.6707706,0.3002844,0.1787529,0.025363898,0.6745664,0.7148189,2.9135978,0.9666492,0
1774626791980,-2.0272558,0.19505024,0.09587622,0.062002487,0.71350324,0.84883285,4.157003,1.2334484,0
1774626792000,-2.0637555,0.09565735,-0.108924866,0.067631505,0.83594275,0.9762519,4.280102,1.656442,0
1774626792026,-2.0616555,-0.004426956,-0.21663523,0.058871552,1.0267965,1.1081009,4.297374,2.2856646,0
1774626792038,-2.1015499,-0.07705593,-0.29423285,0.015704632,1.1912205,1.2335547,4.5090227,2.9409103,0
1774626792058,-1.9276024,-0.2261939,-0.16323948,-0.02721248,1.2898116,1.3296977,3.7934618,3.4324508,0
1774626792079,-1.9688576,-0.32481718,0.2986765,-0.031542495,1.4045404,1.4417119,4.0711145,4.052262,0
1774626792099,-2.1835384,-0.5373187,0.60147524,-0.021799961,1.5400032,1.5886992,5.418324,4.89605,0
1774626792126,-2.0232093,-0.7903824,0.8767457,-0.010775076,1.6403596,1.7012963,5.4867635,5.585305,0
1774626792138,-1.8189191,-1.0086594,1.1582828,0.0015654671,1.7334883,1.7980222,5.6674795,6.237868,0
1774626792157,-1.7946075,-1.2782197,1.3277607,0.014155819,1.8383746,1.8985951,6.61741,6.9844847,0
1774626792178,-1.9085922,-1.5688863,1.4836421,0.016553981,1.945326,2.0248318,8.305323,7.884511,0
1774626792198,-1.7838734,-1.8330722,1.5677853,0.0058621746,2.0331752,2.1321828,9.000309,8.680039,0
1774626792221,-1.4795935,-2.0651321,1.7218885,-0.006145291,2.1054199,2.2258277,9.418868,9.387139,0
1774626792238,-1.3229758,-2.289506,1.8596549,-0.008776608,2.146755,2.3218207,10.450418,9.999485,0
1774626792257,-0.9951242,-2.5188112,2.0734649,0.010325421,2.1755662,2.3873205,11.633939,10.432495,0
1774626792278,-0.75804627,-2.649211,2.1733994,0.022199655,2.2061095,2.4474247,12.316618,10.8573,0
1774626792296,-0.63971794,-2.6397672,1.8763709,-0.016687213,2.216185,2.5083778,10.898377,11.203714,0
1774626792318,-0.48719168,-2.4935203,1.5367398,-0.074959226,2.2364528,2.5662003,8.816568,11.592724,0
1774626792339,-0.29244876,-2.4323878,1.8183722,-0.06271861,2.2066758,2.6055534,9.308515,11.66226,0
1774626792356,0.04865396,-2.535624,2.434514,0.039669603,2.1321995,2.6132474,12.358614,11.37691,0
1774626792376,0.4384967,-2.5213432,2.5452085,0.13696171,2.0149226,2.5788405,13.027536,10.72909,0
1774626792398,0.5676235,-2.321888,2.3017292,0.19438438,1.9533864,2.5262475,11.011318,10.23543,0
1774626792425,0.5201532,-1.8541355,1.8180137,0.17040275,1.9138501,2.451105,7.0135517,9.699776,0
1774626792437,0.5650892,-1.5320973,1.3538756,0.08561772,1.9120681,2.3330956,4.499627,9.10667,0
1774626792455,0.9327461,-1.4082098,1.3330898,0.010092266,1.9355168,2.1592786,4.6301985,8.408812,0
1774626792475,0.92288476,-1.4132452,1.6026244,-0.018902183,1.9575167,2.0024989,5.417383,7.842231,0
1774626792496,0.7023204,-1.5215697,1.93363,0.0037637826,1.9523206,1.893882,6.5473533,7.398359,0
1774626792521,0.44751552,-1.6588736,2.050188,0.0460647,1.9349506,1.8238524,7.1554027,7.0725937,0
1774626792537,0.37570676,-1.7620568,1.9901857,0.06838093,1.8906178,1.7594185,7.206839,6.6746655,0
1774626792554,0.4960909,-1.8143082,1.6143842,0.040302448,1.877528,1.6845925,6.1440563,6.3645873,0
1774626792577,0.37386647,-1.738235,1.3348069,0.01475536,1.9390142,1.6394271,4.942947,6.447715,0
1774626792599,0.088882565,-1.6207709,1.0458498,-0.035506126,1.998785,1.6391772,3.7286005,6.683304,0
1774626792621,-0.11212677,-1.4816294,0.7580614,-0.12866807,2.001233,1.6657403,2.782455,6.79618,0
1774626792639,-0.014343739,-1.4426317,0.59204435,-0.26657906,1.9499891,1.6904213,2.4319086,6.731046,0
1774626792659,0.3651175,-1.5518541,0.5058656,-0.42244294,1.9641782,1.6947013,2.797462,6.908467,0
1774626792674,0.677183,-1.6274757,0.8228407,-0.51252395,2.0416522,1.711705,3.7843208,7.360958,0
1774626792696,0.7084812,-1.4744558,1.1261115,-0.5546916,2.0734112,1.7511247,3.9440928,7.673155,0
1774626792720,0.9372155,-1.4977012,1.9067769,-0.49756873,1.9367158,1.8013363,6.75728,7.2432556,0
1774626792739,1.2726194,-1.5242887,2.6588006,-0.38700345,1.6822942,1.8395736,11.012237,6.3639164,0
1774626792756,1.512107,-1.5112576,2.7774901,-0.30788073,1.511908,1.8898851,12.284819,5.952322,0
1774626792776,1.7697296,-1.451971,2.8215184,-0.24396305,1.4623628,1.9434108,13.201129,5.974868,0
1774626792794,2.166854,-1.5066152,2.9245415,-0.18392572,1.4245085,1.9818313,15.518088,5.9907084,0
1774626792813,2.6497188,-1.6056771,3.1608477,-0.086267225,1.3576596,1.9806156,19.590168,5.7735195,0
1774626792836,3.2547555,-1.7038484,3.2571373,0.057772394,1.3007365,1.9251914,24.105476,5.401615,0
1774626792856,3.561429,-1.761416,3.02073,0.20760758,1.2584857,1.8419052,24.911175,5.019502,0
1774626792873,3.473772,-1.699441,2.3157005,0.27677125,1.1745999,1.7585025,20.317661,4.5486183,0
1774626792893,3.2863445,-1.6412802,1.476397,0.2682611,1.0977088,1.6751996,15.67361,4.0832224,0
1774626792913,2.834185,-1.4054089,0.67702055,0.23700172,1.0767082,1.573261,10.466135,3.690621,0
1774626792937,2.844173,-1.282805,0.31938744,0.20592554,1.0659165,1.4369155,9.836917,3.2433095,0
1774626792956,2.742294,-1.1074305,0.105956554,0.163558,1.0238321,1.2979721,8.757806,2.7597148,0
1774626792976,2.482636,-0.94283724,0.03618288,0.10801723,0.9677251,1.1756824,7.053733,2.3303888,0
1774626792995,2.190851,-0.7753587,0.039222717,0.053875383,0.9276558,1.0636849,5.4025474,1.9948735,0
1774626793021,1.7968041,-0.56256866,0.21667862,0.03245846,0.87481296,0.9590651,3.591938,1.6861571,0
1774626793034,1.5447408,-0.52965784,0.47937918,0.027528904,0.76567996,0.8774776,2.896566,1.3569906,0
1774626793055,1.6943595,-0.5062337,0.7706437,0.04759686,0.68820596,0.78434896,3.7210183,1.0910962,0
1774626793073,2.033814,-0.5507431,0.96783113,0.0940446,0.70259494,0.67343396,5.3764143,0.95599735,0
1774626793092,1.9153476,-0.53638744,0.9687424,0.15916137,0.73019046,0.588499,4.8947296,0.90484154,0
1774626793115,1.4297655,-0.5223694,0.732162,0.19391806,0.6685377,0.5422678,2.8531604,0.77860117,0
1774626793137,1.2097031,-0.52114964,0.33280134,0.17939587,0.5668157,0.47307083,1.8457352,0.5772589,0
1774626793156,1.1489419,-0.56364393,0.02621317,0.14395635,0.53332466,0.4168639,1.638449,0.4789341,0
1774626793172,0.88957095,-0.5895686,-0.25429535,0.091213435,0.5386872,0.412384,1.2035939,0.4685644,0
1774626793196,0.83706856,-0.51410055,-0.3796997,0.026696209,0.510259,0.4017588,1.1091549,0.42248702,0
1774626793226,1.0717885,-0.40575838,-0.294271,-0.019584993,0.4291045,0.36546993,1.3999659,0.3180825,0
1774626793234,1.1655983,-0.332788,0.016272068,-0.021983154,0.3491491,0.3286315,1.4696319,0.230387,0
1774626793255,1.1927931,-0.34750986,0.10821056,-0.008160413,0.28638056,0.27898622,1.5552281,0.15991372,0
1774626793274,1.2546483,-0.25328255,0.21265173,0.036022395,0.24219774,0.21803293,1.6835152,0.10749571,0
1774626793291,1.0870473,-0.17789555,0.15157652,0.082470134,0.19708231,0.1689039,1.2362942,0.07417129,0
1774626793314,0.88221014,-0.13040924,-0.21647835,0.07096229,0.12567036,0.12230628,0.8421642,0.03578751,0
1774626793339,0.74370563,-0.0665946,-0.5085311,0.03530628,0.056523353,0.06696535,0.8161368,0.008925781,0
1774626793351,0.7261044,0.08454895,-0.6192026,-0.016920367,0.020101262,-0.005062787,0.91778797,7.1599137E-4,0
1774626793371,0.6038406,0.21970034,-0.80720186,-0.092778906,0.04546516,-0.06000402,1.0644665,0.014275488,0
1774626793393,0.4423747,0.36915112,-0.8453522,-0.16828771,0.06270195,-0.1045199,1.0465882,0.0431767,0
1774626793424,0.48443103,0.32822084,-0.587893,-0.19406796,0.033590928,-0.16487366,0.6880205,0.06597404,0
1774626793433,0.6134596,0.2788744,-0.22694397,-0.15566404,-0.0062119067,-0.23821746,0.5056071,0.081017435,0
1774626793453,0.3445336,0.2785015,-0.076096535,-0.080121934,-0.045998085,-0.26659572,0.20205717,0.07960863,0
1774626793473,-0.005326748,0.34928846,-0.1968975,0.0055290964,-0.08152086,-0.25968432,0.16079943,0.07411217,0
1774626793493,-0.17181589,0.51450825,-0.5121217,0.038736984,-0.1736003,-0.25931796,0.55650806,0.09888342,0
1774626793521,-0.1964378,0.6684804,-1.0219388,-0.008660031,-0.25448832,-0.2689439,1.5298128,0.13717014,0
1774626793533,-0.19672203,0.82443285,-1.2692518,-0.07194487,-0.21874905,-0.27785376,2.3293893,0.13022992,0
1774626793551,-0.22849835,0.90311337,-1.1411672,-0.109133035,-0.13274828,-0.28669697,2.1700878,0.11172728,0
1774626793572,-0.22312647,0.84743214,-0.90349865,-0.12322224,-0.08150421,-0.29567343,1.5842364,0.109249435,0
1774626793592,-0.3489461,0.8935833,-0.68149185,-0.12500422,-0.09740869,-0.29500726,1.3846856,0.11214379,0
1774626793611,-0.46382755,0.91991854,-0.52862597,-0.109632656,-0.11957504,-0.28724656,1.3408315,0.10882809,0
1774626793635,-0.558864,0.9457197,-0.32204342,-0.06010394,-0.119658306,-0.27347377,1.3104267,0.0927185,0
1774626793650,-0.69818485,0.96276665,-0.16720581,-8.8265695E-4,-0.12748565,-0.24554518,1.4423395,0.076545805,0
1774626793673,-0.83094525,0.97127676,-0.21234846,0.03740467,-0.13291481,-0.21255378,1.6789405,0.06424457,0
1774626793693,-0.7851435,0.93322706,-0.36220646,0.04013591,-0.11396267,-0.20003004,1.6185566,0.054610398,0
1774626793721,-0.7301689,0.8896136,-0.3891678,0.05147722,-0.068913855,-0.19381814,1.4760106,0.044964492,0
1774626793732,-0.8469218,0.8342233,-0.32421064,0.07639146,-0.038953483,-0.17206815,1.5183175,0.03696048,0
1774626793751,-0.93687934,0.7248988,-0.27610683,0.10377048,-0.042500764,-0.143107,1.4794561,0.03305424,0
1774626793769,-0.9063141,0.6227999,-0.32371807,0.117176875,-0.038703676,-0.12193989,1.3140783,0.03009773,0
1774626793789,-0.75691825,0.50349665,-0.3741398,0.12550382,-0.009176302,-0.12179001,0.9664147,0.03066822,0
1774626793812,-0.67191917,0.4446211,-0.41685104,0.121906586,0.024464587,-0.12079077,0.8229281,0.030050144,0
1774626793835,-0.8148391,0.4346652,-0.5496526,0.09201282,0.041218415,-0.095476836,1.1550145,0.019281143,0
1774626793849,-0.70338506,0.37660027,-0.4829569,0.07715754,0.05136064,-0.08120444,0.86982566,0.015185362,0
1774626793869,-0.5941076,0.29344893,-0.28897047,0.09294544,0.033507656,-0.06525,0.52258,0.014019181,0
1774626793889,-0.60106933,0.29245234,-0.11618233,0.12970062,0.003330781,-0.035456162,0.46031106,0.018090485,0
1774626793909,-0.5519923,0.29531813,-0.19915581,0.14698736,-0.008576761,-0.01360624,0.43157133,0.021863976,0
1774626793931,-0.28566933,0.29628992,-0.35047436,0.14582159,0.0074776034,-0.02158346,0.29222694,0.021785695,0
1774626793952,-0.18502696,0.2990265,-0.5233593,0.124604516,0.02311562,-0.024114855,0.39755678,0.016642142,0
1774626793972,-0.26575813,0.32895803,-0.6579666,0.09695903,0.016170941,-0.012074081,0.61176085,0.009808337,0
1774626793989,-0.27007,0.32769775,-0.6247616,0.088265695,-0.003697167,0.003663859,0.57065064,0.007817926,0
1774626794009,-0.20138161,0.3378663,-0.57296944,0.082037136,-0.027945252,0.0028644716,0.4830022,0.0075192344,0
1774626794032,-0.09991671,0.3651662,-0.6353617,0.06471708,-0.053042687,-0.012723584,0.5470142,0.007163716,0
1774626794051,-0.04726748,0.37327576,-0.66423035,0.039086714,-0.050211523,-0.03235854,0.58277094,0.0050960435,0
1774626794070,-0.17403406,0.42164373,-0.7156668,5.828867E-4,-0.04311696,-0.039636295,0.7202502,0.003430448,0
1774626794089,-0.15156001,0.38501406,-0.56889963,-0.0109083075,-0.02989376,-0.06030379,0.49485305,0.004649175,0
1774626794110,-0.096210785,0.33382845,-0.42603064,-0.014222435,-0.03467343,-0.08753292,0.30220005,0.009066537,0
1774626794132,-0.14429414,0.31970644,-0.36945105,-0.017819678,-0.05412519,-0.10978254,0.2595271,0.015299283,0
1774626794151,-0.24939162,0.34537268,-0.27675295,-0.006128637,-0.036005743,-0.11566137,0.25807065,0.014711525,0
1774626794171,-0.41843218,0.33282948,-0.23134422,0.011624426,-0.028561447,-0.10317094,0.3393811,0.011595125,0
1774626794190,-0.51093304,0.34524918,-0.22371197,0.019351838,-0.077673815,-0.09197952,0.4302966,0.014867947,0
1774626794208,-0.413023,0.3146162,-0.23011732,0.02486428,-0.10412021,-0.0989242,0.32252535,0.021245249,0
1774626794234,-0.31588194,0.29037952,-0.25334835,0.023148928,-0.054924577,-0.09975689,0.24828705,0.013504019,0
1774626794251,-0.4223416,0.3310399,-0.3330264,0.008376914,-0.01816941,-0.08470176,0.39886642,0.0075746886,0
1774626794267,-0.36552796,0.27598524,-0.19537354,0.027229134,-0.027279096,-0.08255341,0.24794935,0.00830064,0
1774626794288,-0.33398288,0.2215724,-0.1018796,0.061269715,-0.059571017,-0.08173736,0.17101835,0.01398368,0
1774626794308,-0.42803344,0.20307636,-0.23809862,0.07502584,-0.09659265,-0.06982982,0.28114358,0.01983522,0
1774626794333,-0.46868616,0.18017054,-0.4620099,0.06008729,-0.1102655,-0.05868836,0.4655813,0.019213287,0
1774626794352,-0.37176344,0.15036678,-0.60952806,0.031359304,-0.093928024,-0.06733174,0.5323427,0.014339443,0
1774626794370,-0.30857924,0.15681982,-0.6766014,-0.0044965544,-0.03342439,-0.07570865,0.5776031,0.0068692085,0
1774626794390,-0.40251425,0.22127533,-0.77224827,-0.049961716,-0.0026479708,-0.076491386,0.80734783,0.008354117,0
1774626794413,-0.5394965,0.21785355,-0.7216134,-0.07450957,-0.009709227,-0.06328484,0.85924256,0.009650916,0
1774626794429,-0.5790814,0.25119543,-0.6807828,-0.0859508,-0.012157351,-0.053075995,0.8618996,0.010352403,0
1774626794449,-0.6279322,0.3044715,-0.7830019,-0.12060758,-0.0011158116,-0.042067762,1.1000936,0.01631713,0
1774626794467,-0.7020554,0.4232955,-0.85312414,-0.1582121,0.020567572,-0.027945252,1.3998816,0.02623503,0
1774626794487,-0.6955281,0.4883361,-0.785872,-0.16943683,0.09577661,-0.026812786,1.3398262,0.03860092,0
1774626794510,-0.82827663,0.51778984,-0.73480654,-0.18345942,0.15731278,-0.013922664,1.4940891,0.05859851,0
1774626794532,-1.1343571,0.52131224,-0.66705656,-0.19238591,0.1872232,0.042584036,2.003497,0.07387826,0
1774626794547,-1.5812781,0.580461,-0.52493477,-0.15656336,0.20216174,0.13214873,3.112932,0.082844734,0
1774626794569,-1.7083545,0.6413164,-0.48450804,-0.13001704,0.19450095,0.20309436,3.5645099,0.09598237,0
1774626794589,-1.5608448,0.70420456,-0.6785369,-0.1533325,0.22547722,0.24609475,3.3925526,0.13491346,0
1774626794609,-1.3592408,0.6808834,-0.6292248,-0.1715019,0.34233767,0.27135873,2.7070615,0.22024354,0
1774626794630,-1.3436036,0.65258646,-0.49271917,-0.18241023,0.45240334,0.31126148,2.4739118,0.33482596,0
1774626794647,-1.4574567,0.62505865,-0.27169275,-0.16189261,0.51237404,0.3687674,2.5886953,0.42472577,0
1774626794668,-1.3643608,0.47897816,0.01230526,-0.09562672,0.5351066,0.4234755,2.091052,0.474815,0
1774626794689,-1.173756,0.33678293,0.06820202,-0.024198124,0.55136085,0.46879077,1.4957775,0.5243491,0
1774626794708,-1.0769594,0.33339643,-0.07318258,0.030509954,0.5422345,0.498951,1.2763504,0.5439012,0
1774626794731,-1.0842667,0.24951601,-0.3039465,0.06761485,0.5586386,0.53190905,1.3302759,0.59957606,0
1774626794746,-1.0673451,0.1868391,-0.44542408,0.08410222,0.5680314,0.5629353,1.3725371,0.646629,0
1774626794766,-1.1101944,0.13433743,-0.6808195,0.058938168,0.5753258,0.59144676,1.7140933,0.6842827,0
1774626794788,-1.058093,0.10190964,-0.71505165,0.027861983,0.6232391,0.6060689,1.6412451,0.7565228,0
1774626794812,-1.0770826,0.113796234,-0.77527475,-0.024431279,0.69959724,0.61914223,1.7741076,0.8733703,0
1774626794841,-1.1285846,0.124420166,-0.80918694,-0.102521434,0.73445386,0.6442563,1.9439671,0.96499926,0
1774626794847,-1.132219,0.026917934,-0.6616411,-0.17020291,0.720781,0.6864573,1.7204132,1.0197179,0
1774626794867,-1.0439278,-0.048975945,-0.12408495,-0.17773047,0.67568225,0.73512,1.1075809,1.028536,0
1774626794888,-0.87743735,-0.13424635,0.27972603,-0.16244219,0.6535825,0.7869303,0.86616504,1.0728168,0
1774626794907,-0.5122942,-0.1980238,0.61296415,-0.13301474,0.68530816,0.81151146,0.6773838,1.1458911,0
1774626794933,-0.18326104,-0.26685047,0.7484131,-0.11484533,0.72454476,0.8294644,0.6649159,1.2261658,0
1774626794948,-0.0648514,-0.32091618,0.90039635,-0.10117247,0.7250444,0.85799253,0.91790646,1.2720764,0
1774626794966,0.09136832,-0.4471078,1.0993886,-0.059254594,0.73405415,0.8835396,1.4169087,1.3229889,0
1774626794988,0.3135754,-0.5233698,1.308353,-0.010808384,0.7494424,0.8983283,2.084033,1.3687744,0
1774626795007,0.36694288,-0.6324496,1.3196754,0.029693913,0.7719585,0.92182696,2.276183,1.4465666,0
1774626795034,0.44017684,-0.6913476,1.4249272,0.07021286,0.7847653,0.93671554,2.7021348,1.4982224,0
1774626795047,0.38887078,-0.77214956,1.4017925,0.081670746,0.79963726,0.97292113,2.7124577,1.5926654,0
1774626795065,0.4224035,-0.9065356,1.274095,0.07202814,0.8244849,1.0053629,2.62355,1.6957178,0
1774626795084,0.5912269,-1.0277386,1.2523603,0.07062921,0.85765946,1.0147557,2.9742022,1.7702973,0
1774626795104,0.60317385,-1.0500131,1.1427093,0.060203865,0.8713656,1.0159215,2.7721305,1.7949989,0
1774626795131,0.49764067,-1.0045028,0.9686136,0.047863323,0.9029581,1.0128739,2.1948843,1.8435377,0
1774626795147,0.38261935,-0.92061853,0.7990165,0.027345711,0.94740736,1.0106755,1.6323633,1.9197936,0
1774626795166,0.27604955,-0.938045,0.7085533,0.0032475113,0.96669257,1.0124575,1.4581796,1.9595752,0
1774626795185,0.27330115,-0.93701553,0.7253947,-0.01595444,0.9581158,1.0185862,1.4788891,1.9557583,0
1774626795204,0.114067316,-0.9674978,0.6136031,-0.054824654,0.9499221,1.0508114,1.3255721,2.0095625,0
1774626795230,0.21044207,-1.0370483,0.6620407,-0.08205379,0.93706524,1.0755924,1.558053,2.041723,0
1774626795245,0.34760788,-1.0450573,0.73551846,-0.08986447,0.9380978,1.0881661,1.7539634,2.0722084,0
1774626795264,0.40421444,-0.9703765,0.76742125,-0.08568434,0.9292379,1.1056194,1.6939552,2.0932193,0
1774626795284,0.4255541,-0.93044806,0.7162819,-0.075292304,0.9064887,1.1181432,1.5598896,2.077635,0
1774626795306,0.607361,-0.90172863,0.7315078,-0.051793642,0.8951474,1.1048867,1.7171056,2.024746,0
1774626795330,0.7114094,-0.80459404,0.6471586,-0.042783882,0.87279785,1.0840693,1.5722892,1.9388127,0
1774626795343,0.6851252,-0.66786957,0.5943675,-0.05292611,0.85401225,1.0718286,1.268719,1.8809547,0
1774626795365,0.77126896,-0.5876374,0.48024797,-0.0763415,0.83088,1.0429841,1.1708117,1.7840054,0
1774626795383,0.9456726,-0.54854774,0.59139824,-0.08936486,0.82729936,0.99700266,1.5449531,1.6864246,0
1774626795403,1.0351117,-0.4692402,0.5897746,-0.10994908,0.8331449,0.950838,1.6394767,1.6103122,0
1774626795429,1.1935859,-0.41346836,0.68699646,-0.1136629,0.8185894,0.886937,2.0675676,1.469665,0
1774626795443,1.2790997,-0.38397455,0.80042696,-0.08844889,0.81577486,0.82062113,2.4242158,1.346731,0
1774626795463,1.3145199,-0.3849969,0.8112364,-0.059437785,0.81640774,0.75815237,2.5342896,1.2448494,0
1774626795487,1.1864233,-0.37231636,0.71140337,-0.031026226,0.8194554,0.7203314,2.0523145,1.191347,0
1774626795503,1.1712993,-0.37664032,0.77192163,0.020534264,0.78421575,0.67340064,2.109663,1.0688844,0
1774626795522,1.0726728,-0.32165527,0.79048586,0.067165196,0.7162012,0.64698756,1.878957,0.93604827,0
1774626795542,1.022523,-0.2782669,0.63292074,0.08565103,0.6634583,0.6256539,1.5235745,0.8389559,0
1774626795565,1.1815879,-0.3546419,0.5551214,0.10471975,0.66892076,0.6016223,1.8300807,0.8203706,0
1774626795582,1.2436484,-0.4257288,0.51914454,0.1337142,0.6947843,0.5802221,1.9974174,0.83726233,0
1774626795602,1.1566101,-0.380198,0.5124402,0.163558,0.6701698,0.5800222,1.7448925,0.8123045,0
1774626795624,1.0265175,-0.30201054,0.31329155,0.16848755,0.61226416,0.59522724,1.2431002,0.75755095,0
1774626795645,1.0359772,-0.26431036,0.17552185,0.1689039,0.5526598,0.6075677,1.1739168,0.70309997,0
1774626795664,1.0344012,-0.21348,-0.033397675,0.14395635,0.47894964,0.61677736,1.1166749,0.6305305,0
1774626795682,1.0963144,-0.16512823,-0.2803898,0.08688342,0.4107186,0.60723466,1.3077911,0.5449724,0
1774626795705,1.1594216,-0.10157442,-0.23375702,0.05002833,0.3813078,0.58090484,1.409218,0.48534894,0
1774626795726,1.1723868,-0.07046747,-0.23121881,0.014488897,0.3851715,0.5387871,1.4329185,0.4388586,0
1774626795744,1.0595145,-0.043346405,-0.28386402,-0.02559705,0.36921707,0.4906407,1.2050287,0.37770474,0
1774626795762,0.9179236,-0.047994614,-0.3163576,-0.05319257,0.33850726,0.43791443,0.9449694,0.30918565,0
1774626795784,0.89026165,-0.10295391,-0.1723957,-0.04486562,0.29597318,0.36979994,0.8328856,0.22636504,0
1774626795805,0.8295359,-0.10376406,-0.16488838,-0.012956738,0.30982924,0.29574004,0.72608495,0.18362421,0
1774626795832,0.5985513,0.016702652,-0.34037352,0.007993874,0.34675094,0.2298905,0.47439677,0.17314976,0
1774626795843,0.34655726,0.14302349,-0.6657772,-0.010275459,0.35141405,0.16700536,0.58381695,0.15148821,0
1774626795866,0.23328568,0.19887733,-0.88177156,-0.05084437,0.325817,0.102887824,0.8714955,0.11932776,0
1774626795883,0.14837176,0.24296045,-0.96370554,-0.089464776,0.32496765,0.042300917,1.0097723,0.1153973,0
1774626795904,0.06274086,0.30007887,-0.9927511,-0.11736007,0.34263745,-0.011957504,1.0795386,0.13131678,0
1774626795929,-0.11034185,0.30011225,-0.932518,-0.10858346,0.39654613,-0.03595578,0.9718325,0.17033201,0
1774626795944,-0.24018705,0.29907227,-0.7995539,-0.06166941,0.43711504,-0.03330781,0.78642046,0.19598208,0
1774626795962,-0.40434152,0.42934608,-0.7587056,-0.0044465926,0.427156,-0.004729709,0.92346436,0.18250439,0
1774626795983,-0.48956263,0.6721134,-0.9391427,0.02073411,0.36776817,0.035772588,1.573397,0.13696301,0
1774626796003,-0.51016915,0.9397831,-1.1980238,-0.002631317,0.3085802,0.08796593,2.5787258,0.10296666,0
1774626796027,-0.44261694,1.1393704,-1.284133,-0.05472473,0.29833806,0.13221535,3.1430721,0.10948129,0
1774626796043,-0.32429767,1.315763,-1.3670068,-0.12773545,0.31072855,0.15429842,3.7051086,0.13667658,0
1774626796063,-0.24166656,1.5211973,-1.2730227,-0.1951338,0.31311005,0.16137634,3.9930308,0.16215743,0
1774626796083,-0.1442275,1.6540413,-1.0597296,-0.25833538,0.28962806,0.16942017,3.8796806,0.17932478,0
1774626796104,-0.15251017,1.7643995,-0.72433615,-0.27883634,0.26043376,0.19799827,3.661028,0.18477876,0
1774626796128,0.07928324,1.6380911,-0.2493186,-0.23805092,0.28190064,0.22917439,2.7517881,0.18865712,0
1774626796143,0.45890588,1.4349194,0.16703701,-0.14362328,0.30769753,0.239683,2.2974896,0.17275336,0
1774626796161,0.77086496,1.1264372,0.6110773,0.0140725495,0.28349942,0.22889127,2.2365088,0.13296117,0
1774626796182,0.8410703,0.844213,0.74922085,0.18718989,0.20860681,0.21711695,1.9814267,0.12569663,0
1774626796200,0.6065974,0.581254,0.30015278,0.3021851,0.14488897,0.23432045,0.79590833,0.16721472,0
1774626796223,0.4229827,0.36535788,-0.30076742,0.35176378,0.1308997,0.23905015,0.40286177,0.19801746,0
1774626796243,0.5976028,0.16222286,-0.6965747,0.38079154,0.20579231,0.20277795,0.86866164,0.22847158,0
1774626796261,0.5088361,0.14815092,-1.1096969,0.33945653,0.26391444,0.16086006,1.51229,0.21075752,0
1774626796279,0.14736664,0.23000813,-1.5493875,0.23616903,0.2788863,0.15090103,2.475222,0.15632449,0
1774626796299,-0.13848603,0.35515738,-1.7720904,0.10816711,0.2734571,0.14895253,3.2856197,0.108665764,0
1774626796319,-0.20280814,0.49673176,-1.870748,-0.044749044,0.2716252,0.14037576,3.7875717,0.09548808,0
1774626796341,-0.1933304,0.51391125,-1.8078256,-0.20635854,0.29215944,0.13507982,3.5697148,0.14618754,0
1774626796359,-0.04675007,0.4229455,-1.4093728,-0.33327794,0.32340217,0.1399261,2.1674001,0.23524247,0
1774626796379,0.06359196,0.289814,-0.8626561,-0.40212518,0.3657031,0.16367458,0.8322116,0.32223278,0
1774626796399,0.10500288,0.20630741,-0.2127595,-0.39164987,0.38846898,0.20997243,0.09885496,0.34838617,0
1774626796420,0.027929783,0.13362408,0.2047844,-0.33256182,0.3721315,0.28013533,0.060572114,0.32755503,0
1774626796441,0.026547551,0.088095665,0.451169,-0.23999943,0.3318457,0.33855724,0.2120191,0.2823423,0
1774626796459,0.17039526,0.063179016,0.5596986,-0.14873603,0.30924636,0.36965007,0.34628862,0.2543969,0
1774626796480,0.11938095,0.0927434,0.34748793,-0.09344506,0.311478,0.4015756,0.143601,0.2670135,0
1774626796499,0.14844668,0.14747047,0.18555593,-0.06423411,0.31572473,0.40773755,0.07821496,0.27005804,0
1774626796520,0.3192017,0.079255104,0.07684183,-0.03773775,0.3563436,0.39068395,0.114075765,0.28103885,0
1774626796541,0.21897125,0.13986969,-0.060421944,-0.03603905,0.36781815,0.37875977,0.07116275,0.28004795,0
1774626796561,0.1537981,0.18528748,-0.083869934,-0.032108728,0.35093108,0.3640044,0.06501947,0.2566828,0
1774626796580,0.25457895,0.19007683,-0.10145569,-0.027312404,0.33101302,0.3322454,0.11123289,0.2207026,0
1774626796599,0.44158524,0.20737505,-0.10418987,-0.026646247,0.33281162,0.28653044,0.24885745,0.1935733,0
1774626796620,0.56442803,0.22041607,-0.2169075,-0.049928408,0.3517138,0.23681852,0.4142111,0.18227845,0
1774626796641,0.46033388,0.23324776,-0.28298378,-0.090047665,0.3690172,0.21673392,0.34639162,0.19125588,0
1774626796660,0.44863534,0.2523284,-0.24391079,-0.13054997,0.3529462,0.1980649,0.32443577,0.18084402,0
1774626796679,0.4613518,0.22762156,-0.15257788,-0.15792897,0.3221365,0.19150326,0.28793705,0.16538697,0
1774626796698,0.3506111,0.19316435,0.11888552,-0.1417747,0.2780869,0.21418586,0.17437437,0.14330797,0
1774626796720,0.3356403,0.10418701,0.33713007,-0.09137998,0.24501225,0.24905914,0.23716603,0.13041176,0
1774626796739,0.5482217,-0.01603651,0.37814617,-0.04406623,0.21806623,0.2563036,0.44379872,0.11518625,0
1774626796760,0.68797696,-0.0083146095,0.25581503,-0.01923526,0.19829805,0.25238994,0.53882277,0.103392795,0
1774626796779,0.7084331,0.020861626,0.14125967,-0.0048629404,0.17559877,0.23924999,0.522267,0.08809914,0
1774626796798,0.7264477,0.02614212,0.15196896,0.01910203,0.15106757,0.21998143,0.55150425,0.07157813,0
1774626796817,0.639665,0.023463726,0.05262661,0.024980858,0.12019123,0.21017228,0.4124914,0.05924236,0
1774626796840,0.6223354,0.037885666,-0.16330528,-0.004713055,0.09902412,0.1914866,0.41540524,0.046495106,0
1774626796860,0.774119,0.03274536,-0.20465851,-0.031409264,0.116227604,0.14637117,0.64221764,0.035919916,0
1774626796878,0.90190315,-0.020102024,-0.11923313,-0.035855856,0.15576397,0.09762519,0.82804996,0.035078734,0
1774626796900,0.7727617,-0.032767773,-0.10360575,-0.036655243,0.1382274,0.06751493,0.6089685,0.025008686,0
1774626796922,0.6148305,0.008594036,-0.13921833,-0.037970904,0.07097894,0.05027814,0.3974721,0.0090076905,0
1774626796940,0.56644666,0.066324234,-0.20515251,-0.049228944,0.016820444,0.03650536,0.36734828,0.0040390575,0
1774626796959,0.6710581,0.09069443,-0.21104383,-0.05654001,0.00631183,0.0088598775,0.50308394,0.0033151093,0
1774626796978,0.6950457,0.1392703,-0.13942099,-0.06068683,0.022299578,-0.007993874,0.521923,0.004244065,0
1774626797000,0.56125414,0.19973373,-0.08118057,-0.060170557,0.028378254,-0.010858346,0.36149007,0.004543725,0
1774626797023,0.5335327,0.19680023,-0.023163319,-0.054524884,0.025746936,-0.011591118,0.32392398,0.0037702217,0
1774626797039,0.50919956,0.19823647,0.046943665,-0.03578924,-0.0053125955,-0.01270693,0.3007856,0.0014705594,0
1774626797057,0.41610813,0.21526766,0.058149815,-0.02729575,-0.03535624,-0.010875,0.22286755,0.0021133872,0
1774626797076,0.4494282,0.19268417,-0.100189686,-0.041518185,-0.03948641,-0.02682944,0.24915086,0.004002755,0
1774626797099,0.49631286,0.14357948,-0.09898758,-0.052060105,-0.005745597,-0.04824636,0.27674004,0.005070978,0
1774626797126,0.3278947,0.12953854,-0.06890535,-0.054957885,0.030226838,-0.043783117,0.1290431,0.005850992,0
1774626797139,0.105983615,0.1429081,-0.04465437,-0.057306085,0.0081104515,-0.021267036,0.033649266,0.0038020534,0
1774626797159,0.09855974,0.1225276,0.03157711,-0.043949656,-0.037238132,-0.011191424,0.025724148,0.0034434989,0
1774626797178,0.17119956,0.06905508,0.09218645,-0.021133805,-0.035556085,-0.0092262635,0.042576235,0.0017959969,0
1774626797198,0.19580913,0.06762171,-0.013703346,-0.012040773,0.00562902,-0.009725881,0.04310169,2.7125885E-4,0
1774626797222,0.14250004,0.08322191,-0.13354063,-0.01923526,0.0285781,-0.008793262,0.04506525,0.0012640245,0
1774626797241,0.10545397,0.09503794,-0.09097242,-0.016137633,0.006828101,-0.0074942573,0.02842873,3.632101E-4,0
1774626797256,0.1299882,0.07437992,0.024607658,0.0051127486,-0.003513974,-0.0055124424,0.023034839,6.887523E-5,0
1774626797280,0.08968723,0.07934761,0.012327194,0.0240982,0.015771247,0.0026812786,0.014491802,8.366448E-4,0
1774626797299,0.071329474,0.08441973,-0.15656328,0.016470712,0.025313936,0.009276225,0.036726646,9.981281E-4,0
1774626797316,0.068758965,0.13442278,-0.2152791,-0.0030310107,0.024397971,0.012140697,0.06914237,7.5184455E-4,0
1774626797338,0.05581808,0.17496538,-0.26085615,-0.028711332,0.023765123,0.016154287,0.10177447,0.0016500826,0
1774626797355,0.09218979,0.16393614,-0.18985415,-0.042417496,0.028911179,0.017353369,0.07141861,0.0029362396,0
1774626797376,0.09260392,0.12220335,-0.1066761,-0.035939127,0.042250957,0.020650841,0.034888934,0.0035032216,0
1774626797397,0.08070004,0.104715824,-0.07721758,-0.041817956,0.057256125,0.025363898,0.023440454,0.005670333,0
1774626797416,0.09509027,0.15178823,-0.052161694,-0.042450804,0.07960566,0.028228369,0.03480267,0.008935973,0
1774626797438,0.04637134,0.22355556,0.07004404,-0.031509187,0.087682806,0.03825402,0.057033557,0.010144474,0
1774626797456,-0.09815097,0.2977724,0.16169024,-0.016170941,0.06308499,0.06008729,0.12444575,0.0078516975,0
1774626797477,-0.13206673,0.2975769,0.26713705,0.013639548,0.04768013,0.078606434,0.17735584,0.008638403,0
1774626797498,-0.09646416,0.26980066,0.29748344,0.041068528,0.04483231,0.08690008,0.17059413,0.011248183,0
1774626797521,-0.16908216,0.2721691,0.24192572,0.04976187,0.03215869,0.099607006,0.16119286,0.01343198,0
1774626797539,-0.25138152,0.28730106,0.19185066,0.04896248,0.036705207,0.1198415,0.18254124,0.018106582,0
1774626797554,-0.34087443,0.30806112,0.12779665,0.034223773,0.05112749,0.15216672,0.22742902,0.026939997,0
1774626797575,-0.4403019,0.29267216,0.21733618,0.042151034,0.0390201,0.19708231,0.32675776,0.042140715,0
1774626797598,-0.4277798,0.23433018,0.39853096,0.09166309,0.01573794,0.23014031,0.3967331,0.061614368,0
1774626797627,-0.50074697,0.16544199,0.36411858,0.15304938,0.010658499,0.2719416,0.41070092,0.09748995,0
1774626797635,-0.5033901,0.109956264,0.09254265,0.19431776,0.02844487,0.3086135,0.2740561,0.1338108,0
1774626797659,-0.6493107,0.15381145,-0.3252945,0.19453426,0.024148162,0.35637692,0.55107886,0.16543122,0
1774626797674,-0.9038484,0.25558996,-0.6688309,0.17296745,9.992343E-4,0.4232923,1.329603,0.2090951,0
1774626797694,-0.9332944,0.21293497,-0.8771801,0.14413954,0.005812213,0.48629403,1.6858246,0.25729188,0
1774626797714,-0.8518697,0.16847229,-0.9937506,0.10585222,0.02972722,0.5259803,1.741605,0.28874364,0
1774626797736,-0.8813255,0.14547825,-1.1507788,0.04576493,0.048213053,0.5518105,2.1221905,0.30891377,0
1774626797756,-0.9999616,0.086752415,-1.341558,-0.046630934,0.10840026,0.580705,2.8072271,0.35114336,0
1774626797776,-1.0308176,-0.009367943,-1.385241,-0.13183232,0.21328656,0.610732,2.9815655,0.4358645,0
1774626797794,-1.2615604,-0.016833305,-1.1159525,-0.18124445,0.31057867,0.67863,2.8371682,0.5898473,0
1774626797814,-1.4216653,-0.04196167,-0.83645344,-0.20982255,0.35759264,0.76061714,2.7225473,0.7504364,0
1774626797838,-1.3606753,-0.12469673,-0.79663277,-0.25801894,0.3822904,0.83088,2.5016103,0.9030813,0
1774626797856,-1.2407817,-0.17425632,-0.77966166,-0.31292686,0.42813858,0.88760316,2.1777766,1.0690652,0
1774626797873,-1.1379757,-0.30265093,-0.6095276,-0.34227106,0.5273625,0.9512877,1.75811,1.3002089,0
1774626797893,-1.0325874,-0.42994642,-0.2609973,-0.32565045,0.6087835,1.0141562,1.3192103,1.5051785,0
1774626797915,-1.0274945,-0.45798397,0.028291702,-0.2846652,0.6253375,1.0839194,1.2662947,1.6469624,0
1774626797941,-0.9126428,-0.47145367,0.1486764,-0.23387079,0.62643665,1.1208577,1.07729,1.7034404,0
1774626797956,-0.59116393,-0.49388838,0.26412773,-0.18485834,0.643357,1.1252877,0.663164,1.7143531,0
1774626797975,-0.683294,-0.44312668,0.2007556,-0.16953675,0.67170197,1.158379,0.70355475,1.821768,0
1774626797993,-0.65036404,-0.408494,0.091171265,-0.18111122,0.71678406,1.1756325,0.598153,1.9286923,0
1774626798013,-0.48258126,-0.3447652,0.17817593,-0.18707332,0.79209304,1.1769315,0.38349435,2.0475755,0
1774626798043,-0.5574941,-0.23849869,0.1373825,-0.23388743,0.7989378,1.1965997,0.38655528,2.124856,0
1774626798055,-0.59968334,-0.279171,0.18425941,-0.29465753,0.7553545,1.2353367,0.4715081,2.1834402,0
1774626798073,-0.30704218,-0.4585805,0.34686232,-0.36022395,0.7480601,1.2689276,0.42488444,2.2995324,0
1774626798092,0.07421523,-0.6839714,0.5118637,-0.4117345,0.7736405,1.297156,0.7353293,2.4506586,0
1774626798112,0.38343665,-0.88213587,0.9807272,-0.36367133,0.8269663,1.3326955,1.8870132,2.5922074,0
1774626798135,0.5290427,-1.1416774,1.4094534,-0.23277164,0.8519305,1.3852051,3.5698724,2.6987615,0
1774626798155,0.7143698,-1.3069134,1.4016972,-0.10057293,0.8125773,1.412501,4.1831017,2.665556,0
1774626798175,0.65810806,-1.104413,0.72054005,-0.039353177,0.7463614,1.4225266,2.1720123,2.582186,0
1774626798195,0.7119532,-1.1409464,0.2816224,-0.02819506,0.68968815,1.427756,1.8879471,2.5149517,0
1774626798220,0.6851046,-1.1899066,0.14721107,-0.03399062,0.7146857,1.4284388,1.9069171,2.5523684,0
1774626798234,0.72801393,-1.2411785,-0.17355299,-0.1053526,0.78306663,1.4140664,2.100649,2.6238763,0
1774626798255,0.71440303,-1.2565889,-0.31559753,-0.20296113,0.81752354,1.3986949,2.1889892,2.6658854,0
1774626798275,0.60656524,-1.2627559,-0.12880564,-0.28902853,0.81336004,1.3944647,1.9790646,2.6896238,0
1774626798292,0.8340764,-1.2597289,0.22806072,-0.32778215,0.7874799,1.347201,2.3346121,2.5425162,0
1774626798314,0.9190215,-1.0359688,0.5307894,-0.33875707,0.7784868,1.2891622,2.1995692,2.3827372,0
1774626798338,0.8142594,-0.87844133,0.66115093,-0.35104766,0.77628845,1.2636317,1.8717982,2.3226233,0
1774626798351,0.82555944,-0.8046417,1.0358858,-0.31652412,0.7211807,1.2391171,2.4020562,2.1557004,0
1774626798371,0.93771106,-0.78133965,1.1881542,-0.25620368,0.6658065,1.2017125,2.901504,1.9530514,0
1774626798395,1.1294796,-0.7142,1.15376,-0.1887054,0.6270695,1.1399598,3.1169682,1.7283342,0
1774626798418,1.3012602,-0.6589165,1.0304394,-0.12696937,0.59456104,1.067432,3.1892543,1.5090352,0
1774626798436,1.4123231,-0.5519037,0.998641,-0.059437785,0.5634682,0.9878097,3.2965384,1.2967973,0
1774626798454,1.4332268,-0.4411254,0.8030577,-0.024081547,0.5446826,0.9153652,2.8936324,1.1351526,0
1774626798473,1.4517006,-0.37007856,0.69061947,0.016320826,0.52732927,0.8354931,2.7213478,0.9763912,0
1774626798495,1.587745,-0.34682417,0.7665758,0.072261296,0.49711907,0.739933,3.2288594,0.7998499,0
1774626798522,1.5373354,-0.3151555,0.52280617,0.097258806,0.4429439,0.64760375,2.7360497,0.6250492,0
1774626798533,1.3713636,-0.20584965,0.25168324,0.0810379,0.37461293,0.5592048,1.9863569,0.459612,0
1774626798553,1.1463797,-0.106613636,-0.106544495,0.015238323,0.3345936,0.490241,1.3369046,0.3525213,0
1774626798571,0.976818,-0.031952858,-0.35179567,-0.07617496,0.29860452,0.431103,1.0789546,0.28081706,0
1774626798594,0.98413163,-0.0702796,-0.18355846,-0.12423813,0.26584628,0.37019965,1.007148,0.22315714,0
1774626798619,1.0334072,-0.13556194,0.03717518,-0.1420245,0.2822837,0.31267706,1.0876895,0.19762199,0
1774626798632,0.9180464,-0.15166187,0.06781292,-0.16282523,0.2885289,0.28078485,0.87040913,0.1886011,0
1774626798651,0.8902737,-0.18229103,0.18919563,-0.15256642,0.24154824,0.24562845,0.8616122,0.1419554,0
1774626798674,1.007833,-0.25018263,0.52227974,-0.07732408,0.14413954,0.20329422,1.3510948,0.06808376,0
1774626798693,0.7697058,-0.19405699,0.5321846,-0.008843224,0.049711905,0.196616,0.91332555,0.041207325,0
1774626798719,0.69555557,-0.1622777,0.2498064,0.011724349,-0.014772014,0.1904374,0.57253486,0.036622077,0
1774626798731,0.81186795,-0.14800882,0.046257973,0.006295176,-0.037671134,0.16352469,0.683176,0.028199067,0
1774626798750,0.8800103,-0.16503954,-0.13010597,-0.021533499,-0.022799196,0.11732676,0.8185837,0.014749063,0
1774626798770,0.8527332,-0.13053417,-0.21775723,-0.05822205,0.011024885,0.070945635,0.7916113,0.008544639,0
1774626798789,0.6627322,-0.10794115,-0.29973316,-0.09860777,0.047397014,0.050094947,0.5407052,0.014479473,0
1774626798814,0.39760107,-0.01283741,-0.23325539,-0.14334016,0.028328292,0.039769527,0.21265948,0.022930508,0
1774626798833,0.4891259,-0.004178524,0.0071964264,-0.14875267,-0.012773545,5.1627104E-4,0.2393134,0.022290789,0
1774626798850,0.46101224,0.016937733,0.414155,-0.11129805,-0.03254173,-0.024997512,0.38434356,0.014071095,0
1774626798870,0.32921517,0.04031086,0.48528957,-0.07266099,-0.042067762,-0.032874808,0.34551355,0.008130069,0
1774626798893,0.38238245,0.05374813,0.53094864,-0.041218415,-0.047863323,-0.059820827,0.43101165,0.0075683873,0
1774626798918,0.4826113,0.0689373,0.5241852,-0.01688706,-0.03592247,-0.0872165,0.51243615,0.009182313,0
1774626798929,0.5111266,0.050925255,0.68751144,0.040468987,-0.04008595,-0.122472815,0.73651576,0.018244212,0
1774626798952,0.6651793,-0.018591404,0.8398981,0.13056661,-0.05655666,-0.17791367,1.148238,0.051899567,0
1774626798973,0.70389676,-0.0592227,0.68499374,0.19436772,-0.06256872,-0.22299579,0.96819437,0.09142078,0
1774626798990,0.5825176,-0.029091835,0.20637894,0.19023755,-0.09517707,-0.2629485,0.38276535,0.11439092,0
1774626799009,0.8680482,0.013006687,0.045155525,0.17361696,-0.15038475,-0.33540964,0.75571585,0.16525805,0
1774626799032,0.9403282,0.034392357,-0.15530586,0.11970827,-0.1855245,-0.39269906,0.90951985,0.20296195,0
1774626799051,0.8606198,0.046904564,-0.2553196,0.059887443,-0.24126512,-0.43050343,0.80805457,0.24712858,0
1774626799069,1.1820619,-0.07985687,0.042871475,0.04486562,-0.31505856,-0.5115247,1.4054854,0.36293232,0
1774626799088,1.4591928,-0.1537118,0.43756485,0.074576184,-0.40463993,-0.5871001,2.3443336,0.5139816,0
1774626799108,1.5126975,-0.1342001,0.6169691,0.10280456,-0.5121908,-0.6438233,2.686914,0.6874167,0
1774626799132,1.7708395,-0.14001226,0.8808565,0.14782006,-0.62415504,-0.718616,3.931384,0.92782927,0
1774626799151,2.101955,-0.20896387,1.0669756,0.18395904,-0.7272594,-0.8292146,5.600317,1.250344,0
1774626799170,2.319038,-0.24701357,0.9038601,0.17609839,-0.7897781,-0.9492226,6.2559156,1.5557837,0
1774626799188,2.4414248,-0.3154893,1.0219641,0.19295214,-0.82983077,-1.073927,7.1044993,1.8791689,0
1774626799209,2.3887944,-0.36398315,1.203413,0.22482772,-0.9094198,-1.1898549,7.2870255,2.2933464,0
1774626799233,2.2514362,-0.40376568,1.3373623,0.2641143,-1.0488629,-1.3075147,7.0205297,2.8794646,0
1774626799252,2.182523,-0.5594535,1.523138,0.33161256,-1.2078744,-1.4273729,7.3963447,3.606321,0
1774626799268,2.010857,-0.72372293,1.6698914,0.41827947,-1.3286651,-1.5507118,7.355858,4.3450155,0
1774626799288,1.8262391,-0.864954,1.4565616,0.45241997,-1.398928,-1.672485,6.2048664,4.95889,0
1774626799310,1.6031106,-1.0290833,1.2066422,0.43771458,-1.4751363,-1.7874136,5.084961,5.5624685,0
1774626799333,1.3827934,-1.2506466,1.2648668,0.44990525,-1.5288618,-1.8799094,5.0761228,6.0738926,0
1774626799350,1.0130253,-1.405829,1.4245467,0.4891252,-1.5889823,-1.9385478,5.031909,6.522076,0
1774626799370,0.7145201,-1.6336288,1.5258536,0.5478635,-1.6762822,-1.9830637,5.5075116,7.042618,0
1774626799387,0.6881143,-1.8562856,1.355578,0.6009228,-1.7428311,-2.0326757,5.756889,7.5303392,0
1774626799407,0.40875006,-1.8178883,0.853199,0.5986912,-1.8112288,-2.0603378,4.199743,7.883972,0
1774626799432,0.074777484,-1.8374887,0.3354063,0.5367553,-1.8493994,-2.0721788,3.4944534,8.00231,0
1774626799449,0.03863108,-1.9229598,0.0923295,0.46048048,-1.8730813,-2.1010733,3.7077913,8.134985,0
1774626799470,-0.15708649,-1.9722748,-0.017533302,0.37241462,-1.9186131,-2.11393,3.9148512,8.288468,0
1774626799491,-0.42309487,-2.0270987,-0.047677994,0.28699675,-1.9667596,-2.1098666,4.2904115,8.402047,0
1774626799517,-0.42004883,-2.0464964,0.06153488,0.21600115,-1.9613804,-2.1274197,4.3683753,8.419584,0
1774626799531,-0.48678535,-2.0444713,-0.025830746,0.12590352,-1.9074883,-2.1392274,4.41749,8.230658,0
1774626799547,-0.8012597,-1.9308634,-0.085501194,0.0172701,-1.8915505,-2.1345477,4.377561,8.134556,0
1774626799567,-0.8638114,-1.866611,-0.044051647,-0.09835796,-1.8796929,-2.1422918,4.2323475,8.132334,0
1774626799589,-0.8769982,-1.7982674,0.1612544,-0.19203618,-1.8203051,-2.153633,4.0288944,7.988524,0
1774626799609,-1.1436518,-1.7307701,0.41927385,-0.24367994,-1.741782,-2.1222737,4.4792957,7.59723,0
1774626799632,-1.4234619,-1.6444702,0.6305504,-0.25975096,-1.7073749,-2.0643847,5.12812,7.244284,0
1774626799646,-1.269954,-1.4268765,0.88258886,-0.23503655,-1.651651,-2.0482805,4.427723,6.978646,0
1774626799669,-1.2718985,-1.1214957,0.7307892,-0.23721822,-1.57018,-2.0145895,3.4095314,6.580309,0
1774626799688,-1.5562332,-0.8484974,0.4195156,-0.28110126,-1.537222,-1.9403797,3.317803,6.207143,0
1774626799708,-1.408489,-0.5919361,0.37378788,-0.30914643,-1.5316596,-1.8595251,2.4739468,5.8993864,0
1774626799728,-1.2369728,-0.4058919,0.36185598,-0.31164452,-1.4466082,-1.77046,1.8257897,5.324326,0
1774626799746,-1.3020748,-0.12834597,0.2306323,-0.2913767,-1.3552781,-1.7097398,1.7650628,4.8448896,0
1774626799768,-1.1080251,-0.13762426,0.38473082,-0.21077181,-1.1943514,-1.6781807,1.3946778,4.2871904,0
1774626799789,-1.3792531,-0.0017118454,0.39146948,-0.15031815,-1.0991411,-1.6066688,2.0555906,3.8120914,0
1774626799817,-1.9696385,0.3131876,0.10624218,-0.12185662,-1.026963,-1.4722052,3.9888494,3.23689,0
1774626799828,-2.2348762,0.4940772,-0.11957216,-0.103737175,-0.94978887,-1.3211709,5.2530813,2.6583529,0
1774626799846,-2.2313542,0.5521989,-0.2783723,-0.10422014,-0.90552276,-1.1885558,5.3613567,2.2434983,0
1774626799868,-1.939058,0.45513916,-0.2748375,-0.09094697,-0.8122609,-1.0892819,4.042633,1.8545742,0
1774626799888,-1.6866839,0.3429885,-0.20047426,-0.060120597,-0.6679548,-1.0018989,3.0027337,1.4535794,0
1774626799910,-1.8173467,0.3228674,-0.22860384,-0.03642209,-0.56413436,-0.89374846,3.4592519,1.1183605,0
1774626799929,-1.8339995,0.33444977,-0.25894213,-0.009559342,-0.48289663,-0.7847986,3.5424619,0.8491894,0
1774626799946,-1.8016158,0.33156157,-0.31824827,-0.00797722,-0.4209441,-0.6837094,3.4570346,0.6447161,0
1774626799965,-1.6793935,0.25902843,-0.48715115,-0.020617533,-0.34038916,-0.5764416,3.1247745,0.44857478,0
1774626799987,-1.3935647,0.17336893,-0.40759468,-0.021650076,-0.28091806,-0.4881093,2.138213,0.31763434,0
1774626800009,-1.1990902,0.14669514,-0.34070253,-0.016570635,-0.20657504,-0.39761198,1.5754151,0.20104311,0
1774626800029,-1.1576368,0.19422626,-0.37164307,-0.019185299,-0.15964434,-0.30946285,1.5159652,0.12162164,0
1774626800046,-1.0836887,0.2209897,-0.36052084,-0.014505551,-0.12990046,-0.22854154,1.353193,0.069315776,0
1774626800068,-0.90945005,0.20852613,-0.36761713,-0.014055896,-0.11922531,-0.16613935,1.0057249,0.042014524,0
1774626800084,-0.8238946,0.24970675,-0.47994852,-0.03595578,-0.08210375,-0.10450325,0.97150636,0.018954773,0
1774626800105,-0.66406345,0.24154091,-0.5821576,-0.06841424,-0.0011824273,-0.05562404,0.8382298,0.00777594,0
1774626800130,-0.47241795,0.25005007,-0.5792408,-0.113629594,0.0565067,-0.023948316,0.6212237,0.016678214,0
1774626800148,-0.4288646,0.26846647,-0.54682493,-0.15341577,0.07647473,0.017736409,0.55501664,0.029699365,0
1774626800164,-0.4949677,0.23487568,-0.29262686,-0.14430608,0.08185394,0.0744263,0.38579008,0.033063587,0
1774626800186,-0.40645087,0.15555048,-0.10752869,-0.108683385,0.08741634,0.1236719,0.20096068,0.034748435,0
1774626800206,-0.20732367,0.16748095,-0.18144846,-0.10986581,0.0897812,0.15228331,0.10395651,0.043321364,0
1774626800228,-0.076719046,0.21443653,-0.3347764,-0.13126607,0.13231528,0.1801786,0.16394408,0.06720244,0
1774626800251,-0.009724617,0.25964022,-0.3148489,-0.14020923,0.12357198,0.20321095,0.16663745,0.07622335,0
1774626800264,-0.036636353,0.22748041,-0.15021276,-0.12572032,0.07509246,0.23726818,0.075653434,0.07774067,0
1774626800283,0.047679663,0.1949935,-0.12167406,-0.10986581,0.04849617,0.27410662,0.05510039,0.08955681,0
1774626800304,0.23421097,0.18286562,-0.2726984,-0.12793529,0.05918798,0.28984457,0.16265902,0.10388053,0
1774626800329,0.40852952,0.21309042,-0.44055367,-0.16687213,0.070346095,0.29027757,0.40639144,0.117055945,0
1774626800343,0.46433038,0.21705961,-0.47324228,-0.20014663,0.08883193,0.2872965,0.48667583,0.13048907,0
1774626800366,0.4421249,0.23149538,-0.33271265,-0.21476875,0.0776072,0.2908105,0.35976225,0.13671924,0
1774626800383,0.43462992,0.2802124,-0.15980864,-0.21105494,0.03185892,0.30235165,0.29296094,0.1369757,0
1774626800405,0.54075503,0.34079742,0.18130255,-0.17276761,0.005262634,0.31420922,0.44142953,0.12860377,0
1774626800430,0.7927964,0.35228825,0.44098997,-0.10909973,-0.015804555,0.30291787,0.9471052,0.10391177,0
1774626800443,1.1679292,0.3005786,0.58551645,-0.03483997,-0.020634187,0.26691213,1.7972355,0.072881676,0
1774626800465,1.4079857,0.30466652,0.43939114,0.008943147,-0.019351838,0.2134198,2.26831,0.046002485,0
1774626800483,1.4585419,0.3266492,0.15350008,0.026812786,0.024614472,0.16715524,2.2576063,0.02926567,0
1774626800503,1.2278632,0.28555155,-0.13456106,0.032258615,0.054408308,0.13954307,1.6072943,0.023473151,0
1774626800528,1.1567092,0.24117517,-0.31418705,0.022999043,0.05240984,0.10330417,1.4948552,0.013947498,0
1774626800543,1.2167461,0.14653826,-0.5392828,-0.002781202,0.058488514,0.05562404,1.7927704,0.0065226755,0
1774626800566,1.2180321,0.059578896,-0.7650175,-0.036705207,0.11367956,0.013256508,2.072404,0.01444605,0
1774626800583,1.1546526,0.036066055,-1.0347929,-0.09827469,0.20459323,-0.013922664,2.4053197,0.051710147,0
1774626800605,1.2473699,-0.012313843,-1.0951991,-0.15661332,0.25278962,-0.0859508,2.7555444,0.09581786,0
1774626800627,1.19415,0.1666193,-0.79887104,-0.227076,0.15085107,-0.12238955,2.091951,0.089298755,0
1774626800643,1.1032854,0.19479322,-0.4438815,-0.2606003,0.009142994,-0.13925995,1.452214,0.08738945,0
1774626800665,1.1968293,0.22274637,0.18534613,-0.21914874,-0.10566903,-0.16475709,1.5163696,0.086337015,0
1774626800685,1.6539886,0.1286931,0.7144394,-0.11779307,-0.13196555,-0.23656872,3.2626638,0.087254874,0
1774626800703,1.8752259,0.16972446,0.79689264,-0.04040237,-0.07735739,-0.31339318,4.1803164,0.1058318,0
1774626800729,1.7516894,0.26099443,0.43833733,-0.04226761,-0.04141826,-0.37106565,3.3286736,0.14119174,0
1774626800743,1.7281039,0.34510756,0.32961082,-0.05196018,-0.05579058,-0.44059572,3.2140853,0.19993703,0
1774626800764,1.7500622,0.31666136,0.64437056,-0.006145291,-0.13632886,-0.51099175,3.5782056,0.2797359,0
1774626800787,1.6281744,0.27153826,0.89099455,0.070579246,-0.20159552,-0.5540088,3.518556,0.3525479,0
1774626800813,1.5491397,0.19376755,0.9040165,0.15421516,-0.22452794,-0.59784186,3.2546258,0.43161002,0
1774626800825,1.6138554,0.18484783,0.8090086,0.21272032,-0.23871708,-0.6539322,3.2931929,0.5298631,0
1774626800844,1.431228,0.23220873,0.5206437,0.23302144,-0.2773375,-0.69969714,2.3734045,0.62079114,0
1774626800866,1.2603478,0.18833113,0.30652428,0.24321362,-0.30486637,-0.7480934,1.7179024,0.71174014,0
1774626800881,1.0763311,0.0972991,0.17322874,0.25498793,-0.29400805,-0.78633076,1.1979641,0.7697756,0
1774626800904,0.65216976,0.020299911,-0.014032841,0.25563744,-0.27915275,-0.7815511,0.4259344,0.7540989,0
1774626800927,0.21853316,0.032871723,-0.05099678,0.27257445,-0.33374426,-0.75838554,0.051437967,0.7608307,0
1774626800943,0.08206797,-0.08784199,0.12643814,0.30121917,-0.47100574,-0.7554378,0.030437969,0.8832657,0
1774626800961,-0.09820962,-0.11571264,-0.009837151,0.28959474,-0.5729776,-0.731223,0.023131317,0.9468555,0
1774626800984,-0.13732457,-0.20371532,0.23930883,0.31535834,-0.65832883,-0.7107387,0.11762669,1.0379972,0
1774626801004,0.07573128,-0.40832233,0.643065,0.40845367,-0.6604106,-0.7245948,0.5859949,1.1280141,0
1774626801026,0.10073447,-0.5490813,0.71382666,0.49443778,-0.62916785,-0.74348027,0.8211862,1.1930838,0
1774626801043,-0.03512001,-0.5534997,0.23898745,0.5061788,-0.59033096,-0.7486763,0.36471033,1.1652238,0
1774626801063,-0.275046,-0.49477053,0.0820961,0.5143225,-0.6093997,-0.7417649,0.32718793,1.1861107,0
1774626801084,-0.31130266,-0.45913363,-0.20844126,0.49810165,-0.67090255,-0.74924254,0.3511608,1.2595799,0
1774626801110,-0.09176099,-0.5933671,-0.43002796,0.44111198,-0.7219468,-0.80096954,0.54542863,1.3573391,0
1774626801123,-0.054549456,-0.5204625,-0.8864126,0.33652544,-0.7131868,-0.85412884,1.0595841,1.3514209,0
1774626801143,-0.14805031,-0.5278139,-1.149549,0.22043109,-0.6569632,-0.8862209,1.6219692,1.265578,0
1774626801161,-0.2897396,-0.52515507,-1.0662341,0.13671191,-0.58167094,-0.8961966,1.496592,1.1601996,0
1774626801183,-0.33948505,-0.5018873,-1.1649556,0.05470808,-0.49775192,-0.89433134,1.7242626,1.0505785,0
1774626801203,-0.29832017,-0.40578365,-1.1861229,-0.031792305,-0.45776588,-0.91719717,1.6605428,1.051811,0
1774626801227,-0.49929702,-0.2094264,-1.2582216,-0.12498756,-0.43108633,-0.9080708,1.8762786,1.0260499,0
1774626801242,-0.7058848,-0.101834774,-1.0904641,-0.17131872,-0.41718033,-0.88420576,1.6977556,0.98520935,0
1774626801262,-0.9035617,0.025412083,-0.8222742,-0.1840423,-0.4255739,-0.83735836,1.4932044,0.9161537,0
1774626801282,-1.0074466,0.22715425,-0.51696396,-0.17426646,-0.44564185,-0.7747563,1.3337995,0.8292128,0
1774626801302,-1.0815599,0.35399055,-0.48141623,-0.18204384,-0.44750708,-0.7003133,1.5268427,0.7238413,0
1774626801327,-1.039635,0.4106269,-0.38977098,-0.18012863,-0.41779652,-0.6361126,1.4013766,0.6116395,0
1774626801340,-1.0343435,0.4663129,-0.38298178,-0.18047836,-0.37786046,-0.5739768,1.4339892,0.5048003,0
1774626801359,-0.9814875,0.46453285,-0.24205208,-0.15401532,-0.32756564,-0.5235488,1.2376977,0.4051233,0
1774626801380,-1.0094788,0.48426342,-0.21436548,-0.13301474,-0.2815176,-0.46294525,1.2995111,0.31126338,0
1774626801402,-1.1728361,0.5748596,-0.19190311,-0.12915103,-0.3248344,-0.3855712,1.7428348,0.27086255,0
1774626801427,-1.259275,0.6165738,0.07250023,-0.09824138,-0.3529129,-0.30230168,1.971193,0.22558519,0
1774626801439,-1.0001158,0.5672226,0.35300636,-0.04636447,-0.3045999,-0.24677756,1.4465865,0.15582994,0
1774626801460,-0.6607548,0.5241556,0.48189688,0.011341309,-0.15856183,-0.21390276,0.9435606,0.071024865,0
1774626801479,-0.7356043,0.5535321,0.37629414,0.047097243,-0.05390869,-0.1643907,0.9891088,0.0321486,0
1774626801500,-0.7818947,0.5106344,0.3440771,0.07947244,-0.05425842,-0.11794295,0.99049586,0.023170384,0
1774626801524,-0.81896186,0.4675107,0.28322697,0.11677718,-0.0821204,-0.06544985,0.9694823,0.024664355,0
1774626801540,-0.71098983,0.41369534,0.1715188,0.14908576,-0.09677584,-0.024114855,0.70606905,0.032173652,0
1774626801561,-0.52597785,0.3565998,-0.061111927,0.16140965,-0.054874618,-0.004363323,0.40755078,0.029083336,0
1774626801579,-0.3557446,0.2788968,-0.34631968,0.13156585,-0.00950938,0.007877297,0.32427496,0.017462054,0
1774626801598,-0.43867457,0.29036665,-0.5410819,0.071528524,0.007211141,0.03342439,0.56951785,0.0062855203,0
1774626801618,-0.477826,0.27986336,-0.39552546,0.047746744,0.023748469,0.06281853,0.4630816,0.0067899087,0
1774626801642,-0.4621768,0.20358562,-0.29472256,0.04768013,0.02652967,0.09182963,0.3419159,0.011409899,0
1774626801659,-0.39940786,0.15723944,-0.18263245,0.071162134,0.006844755,0.10320425,0.2176055,0.015762016,0
1774626801678,-0.3872248,0.12648201,-0.2639222,0.07620827,0.010441998,0.12099062,0.23559567,0.020555466,0
1774626801703,-0.52691126,0.16845751,-0.57056093,0.028761294,0.0109083075,0.14883594,0.6315532,0.02309834,0
1774626801720,-0.46324658,0.20602655,-0.66500473,-0.029560681,0.04226761,0.16170941,0.6992756,0.028810319,0
1774626801738,-0.4213872,0.2605424,-0.6991496,-0.078706354,0.08781604,0.17005302,0.7342597,0.042824376,0
1774626801761,-0.49768388,0.30849743,-0.56762457,-0.11331317,0.10392036,0.18930493,0.66505754,0.059475675,0
1774626801781,-0.58608603,0.3157878,-0.4366212,-0.14130838,0.101139165,0.21421918,0.63385683,0.07608705,0
1774626801798,-0.4093362,0.29483032,-0.12765455,-0.114578865,0.11144793,0.22168013,0.27077672,0.07469104,0
1774626801817,-0.3997277,0.38688707,0.07261896,-0.08819908,0.117043644,0.22864147,0.31473738,0.07375521,0
1774626801840,-0.40027106,0.4938879,0.0019226074,-0.09364491,0.12332217,0.22104728,0.40414587,0.07283963,0
1774626801859,-0.36605442,0.5342498,-0.042663574,-0.1275356,0.113629594,0.20787404,0.42123884,0.072388634,0
1774626801878,-0.5639529,0.6648402,0.2080741,-0.10833365,0.083219565,0.21934858,0.80335027,0.06677547,0
1774626801898,-0.7166407,0.57401466,0.7476659,-5.828867E-4,0.020567572,0.2419979,1.402071,0.058986347,0
1774626801922,-0.9527674,0.4620781,0.96823645,0.13294812,0.02951072,0.28389913,2.0587637,0.099144794,0
1774626801942,-1.216383,0.40765238,0.7027321,0.20732446,0.1025714,0.35262978,2.1396005,0.17785208,0
1774626801959,-1.4005965,0.3106122,0.0307765,0.18432541,0.24004938,0.42917112,2.0590978,0.2757874,0
1774626801982,-1.0966887,0.13856506,-0.36940813,0.11624426,0.3812745,0.47605187,1.3583889,0.38550836,0
1774626802005,-1.058904,0.05892992,-0.4924369,0.042800535,0.42712268,0.5162211,1.3672446,0.4507499,0
1774626802020,-1.1481539,-0.09123373,-0.27596426,5.828867E-4,0.44595826,0.5763583,1.4027371,0.531068,0
1774626802039,-1.1891687,-0.21166182,-0.052708626,-0.021833269,0.5127904,0.645955,1.4617012,0.68068856,0
1774626802061,-1.1844113,-0.3235221,0.019024372,-0.048029862,0.60120595,0.73182255,1.5078586,0.8993197,0
1774626802079,-1.2337971,-0.3911667,0.24389744,-0.042783882,0.64545536,0.8180065,1.7347524,1.0875778,0
1774626802100,-1.2033019,-0.4558239,0.52196026,-0.01986811,0.618576,0.8875199,1.9281535,1.1707226,0
1774626802127,-1.1968272,-0.58890915,0.7553315,0.03762117,0.6184594,0.9593149,2.349735,1.3041924,0
1774626802140,-1.1736557,-0.7469344,0.777812,0.089797854,0.6926026,1.0414686,2.5403705,1.5724188,0
1774626802156,-1.1790826,-0.7462039,0.49710703,0.094527565,0.74486256,1.1227397,2.1941717,1.8243,0
1774626802176,-0.93090916,-0.7228875,0.30878592,0.08112117,0.79725575,1.1786635,1.484507,2.031445,0
1774626802198,-0.7279742,-0.7594509,0.27000523,0.052276608,0.8592249,1.2178168,1.1796149,2.2240782,0
1774626802223,-0.73379683,-0.8240156,0.21155596,0.018768951,0.92221,1.2721752,1.2622155,2.4692533,0
1774626802238,-0.6813216,-0.85793924,0.36773682,0.0056956355,0.9463248,1.3215706,1.3354893,2.642112,0
1774626802256,-0.44687867,-0.9605384,0.4867835,8.326952E-4,0.9802322,1.347151,1.3592927,2.7756717,0
1774626802278,-0.14708447,-1.0633669,0.41936922,-0.026279861,1.0332916,1.3487332,1.3282535,2.887463,0
1774626802298,-0.03731954,-1.0972705,0.30687428,-0.077207506,1.0428176,1.3591251,1.299567,2.9406505,0
1774626802324,0.1873014,-1.1261144,0.4997182,-0.11098162,1.0196021,1.3716156,1.5529337,2.9332347,0
1774626802339,0.6193123,-1.1031733,0.7811961,-0.102987744,1.0109919,1.3489163,2.2108064,2.8522863,0
1774626802358,1.0966027,-0.98580694,0.83397293,-0.09269563,1.0131403,1.290994,2.8698635,2.7017114,0
1774626802378,1.0938977,-0.76852226,0.7150583,-0.08929824,0.9905576,1.2469279,2.298547,2.5440078,0
1774626802398,1.0032763,-0.68139696,0.5753231,-0.10851684,0.94802356,1.2191324,1.8018619,2.3968084,0
1774626802421,1.2062998,-0.6426754,0.5492964,-0.12145693,0.9213773,1.1669391,2.1699173,2.2254348,0
1774626802437,1.4314237,-0.59020424,0.63733387,-0.10923296,0.90100956,1.0876498,2.8035092,2.0067322,0
1774626802455,1.3773003,-0.5075259,0.7327652,-0.07455953,0.86983347,1.0273294,2.6914835,1.8175752,0
1774626802478,1.235503,-0.5049181,0.72306585,-0.03439031,0.83884054,0.9942714,2.304234,1.6934118,0
1774626802498,1.1291301,-0.49893904,0.64160824,-0.0037637826,0.7787532,0.97342074,1.9355361,1.5540187,0
1774626802523,1.1817484,-0.45260715,0.50408554,0.025363898,0.699464,0.9311365,1.8554847,1.3569084,0
1774626802538,1.2817073,-0.42727375,0.23506641,0.020700803,0.65987766,0.87529594,1.8805927,1.20201,0
1774626802555,1.446931,-0.42182446,-0.14516401,-0.01740333,0.70466,0.816874,2.2926178,1.1641318,0
1774626802575,1.4316553,-0.36034393,-0.3175578,-0.053758804,0.7463947,0.7733241,2.2803276,1.1580253,0
1774626802599,1.222805,-0.29283047,-0.35311747,-0.07452622,0.6960666,0.7522069,1.7056937,1.0558782,0
1774626802615,1.1022575,-0.2555132,-0.35955,-0.0955268,0.5637014,0.73382103,1.4095347,0.86537796,0
1774626802634,1.0717521,-0.20255804,-0.38424158,-0.12636983,0.4968193,0.7301405,1.3373239,0.79590386,0
1774626802654,1.3183444,-0.13625717,-0.36814404,-0.14995176,0.52228314,0.7097894,1.8921279,0.7990662,0
1774626802674,1.5356897,-0.057178497,-0.09358406,-0.14024253,0.56601626,0.65926147,2.3703704,0.77466804,0
1774626802695,1.4677778,0.040736675,0.0071148872,-0.118359305,0.5674651,0.6192088,2.1560817,0.7194451,0
1774626802714,1.2615066,0.11952305,0.14698029,-0.07332715,0.52707946,0.5984081,1.6272879,0.64128184,0
1774626802739,1.1424026,0.13697243,0.30713558,-0.004379977,0.49502066,0.5747263,1.4181775,0.57537496,0
1774626802756,1.1097543,0.09896517,0.19680214,0.03455685,0.45162058,0.5500285,1.2800798,0.5076867,0
1774626802777,1.0004233,0.18598557,0.02048111,0.030526608,0.41851264,0.5256805,1.035857,0.4524247,0
1774626802794,1.1320539,0.2122097,-0.042537212,0.014555513,0.43743145,0.47443643,1.3283882,0.41664806,0
1774626802814,1.2242928,0.18786383,0.013636112,-0.006461715,0.49358842,0.41979498,1.5343716,0.4198991,0
1774626802839,1.0889254,0.241014,0.1580348,-0.009292879,0.51487213,0.40050974,1.2688211,0.42558774,0
1774626802857,0.97432923,0.25805044,0.4389143,0.032425154,0.49085718,0.39568013,1.2085533,0.39855492,0
1774626802873,1.098598,0.27757883,0.73430777,0.11089835,0.43643224,0.38184074,1.8231754,0.34857392,0
