timestamp,acc_x,acc_y,acc_z,gyro_x,gyro_y,gyro_z,acc_mag_sq,gyro_mag_sq,label_id
1774620088424,0.7438383,1.2158456,-0.94923115,-0.43042016,0.06238553,0.06791463,2.9326158,0.19376588,1
1774620088424,0.49559417,1.450922,1.5186906,-0.5593214,-0.07805685,0.101488896,4.6572094,0.3292333,1
1774620088450,-0.16932458,1.498241,2.55587,-0.55387557,-0.06944678,0.17041941,8.805868,0.34064376,1
1774620088461,-0.7771272,1.3289433,3.4855704,-0.57289433,0.018069487,0.1712521,14.519218,0.3578617,1
1774620088483,-0.55615133,0.9701147,3.1463542,-0.71187115,-0.04205111,0.08266998,11.149971,0.51536316,1
1774620088501,-0.69418293,0.7326751,2.700243,-0.78354955,-0.16805455,0.14112519,8.310015,0.66210854,1
1774620088521,-1.8631171,0.6866479,2.6654549,-0.7526566,-0.15476474,0.3921162,11.04734,0.74419916,1
1774620088543,-2.164061,0.80930233,1.8353524,-0.6805951,0.057938933,0.543317,8.706649,0.76176,1
1774620088561,-1.0918422,0.059000015,0.92200184,-0.5431671,0.30658174,0.45833212,2.0456877,0.5990912,1
1774620088581,-0.4609931,-0.66897917,0.9394407,-0.3391068,0.35218012,0.37033287,1.5425966,0.3761707,1
1774620088601,-1.0816996,-0.26035643,1.0774393,-0.20247817,0.38157427,0.47710106,2.398735,0.41422176,1
1774620088621,-1.4968227,0.21937466,0.39640903,-0.1750492,0.32738248,0.6123474,2.4457436,0.51279086,1
1774620088644,-1.0216364,-0.21511173,-0.19600153,-0.19603312,0.2465444,0.6634583,1.1284306,0.53939,1
1774620088660,-0.26880968,-0.8030286,-0.68990993,-0.19798163,0.12888457,0.6375448,1.1930892,0.46227133,1
1774620088681,0.10775921,-1.2993059,-1.0379944,-0.18715659,-0.0351897,0.592879,2.7772403,0.38777143,1
1774620088700,0.03489065,-1.4970422,-1.5084801,-0.1352297,-0.04268396,0.5913802,4.517865,0.36983952,1
1774620088720,-0.09130433,-1.4947076,-2.1929278,-0.007144525,-0.040802065,0.58303654,7.0514193,0.34164745,1
1774620088742,0.024151668,-1.6231432,-2.1283016,0.14637117,-0.024214778,0.5972756,7.164845,0.378749,1
1774620088760,0.16784811,-1.428122,-2.483798,0.13960968,-0.018086141,0.581138,8.2369585,0.35753936,1
1774620088780,0.6443702,-1.2425084,-2.9984083,0.0821204,0.0062618684,0.4985513,10.949493,0.25533637,1
1774620088800,1.1903752,-1.1987777,-2.8362846,0.09589318,0.08611734,0.36153963,10.898572,0.1473226,1
1774620088820,1.4810618,-1.0083237,-2.2120967,0.15066788,0.152683,0.21691711,8.103632,0.09306595,1
1774620088844,1.3967814,-0.53077936,-1.5016966,0.21142133,0.17330053,0.070346095,4.487818,0.07968062,1
1774620088860,1.4344739,-0.0625062,-0.97164154,0.28043512,0.21277028,-0.05544085,3.0057094,0.12698874,1
1774620088880,0.99185383,0.26131535,-0.2490921,0.33081317,0.15596382,-0.12490429,1.1141067,0.14936315,1
1774620088901,0.61804533,0.6628938,0.52975035,0.3279154,-0.010941615,-0.08195387,1.1020436,0.11436466,1
1774620088920,0.10112268,1.1205955,1.0495796,0.29011104,-0.12590352,-0.019068722,2.3675773,0.10037972,1
1774620088942,0.23170821,1.0743966,1.5723343,0.25328925,-0.15931125,-0.061819296,3.680252,0.093357146,1
1774620088961,0.89271307,0.76804686,2.4565344,0.2660628,-0.22739242,-0.22937423,7.421394,0.17510927,1
1774620088979,1.4021956,1.0899038,3.4482126,0.33747473,-0.26549655,-0.33895692,15.044212,0.2992694,1
1774620088999,0.9185051,1.5009804,3.5355196,0.33797434,-0.2473771,-0.3478168,15.596493,0.2963986,1
1774620089019,0.670725,1.5450072,2.8782797,0.18677354,-0.13762787,-0.35750937,11.121414,0.18163875,1
1774620089042,0.5872396,0.9929199,1.8598804,-0.08288649,-0.03036007,-0.399777,4.7898955,0.16761355,1
1774620089059,0.09379317,0.2128582,1.964128,-0.2655465,-0.19095367,-0.38823584,3.9119046,0.25770533,1
1774620089079,-0.34777153,-0.1573267,3.1886244,-0.23212212,-0.3746296,-0.37522912,10.313022,0.3350249,1
1774620089099,0.19530971,-0.69338274,3.0448442,-0.0891317,-0.30438343,-0.4305867,9.790002,0.28599864,1
1774620089119,0.7055808,-1.1626301,1.6398592,-0.0039303214,-0.088732004,-0.4970691,4.538691,0.2549665,1
1774620089145,0.53153044,-1.0851407,0.40947247,-0.00562902,0.087699465,-0.4776673,1.6277227,0.23588894,1
1774620089161,-0.17521507,-1.0770679,-0.17475939,-0.123405434,0.06510011,-0.402808,1.2213163,0.18172121,1
1774620089179,-0.7274143,-1.3697014,-0.5062218,-0.24148162,-0.08311964,-0.30408365,2.661474,0.1576891,1
1774620089199,-0.980704,-1.8228006,-0.72139645,-0.22974062,-0.21994813,-0.23185566,4.8047957,0.15491498,1
1774620089220,-0.6856904,-2.3666973,-1.0722184,-0.09777507,-0.25891826,-0.2108884,7.2210803,0.121072546,1
1774620089249,-0.31043774,-2.7725222,-1.8084698,0.01825268,-0.17300077,-0.22048105,11.053814,0.07887432,1
1774620089258,-0.2206078,-2.9061005,-2.7604198,0.06072014,-0.08490161,-0.24576168,16.114006,0.071294025,1
1774620089278,-0.073966585,-2.7422612,-3.1524673,0.10666826,-0.027878636,-0.2855312,17.463516,0.0936834,1
1774620089299,0.117089935,-2.281966,-3.042232,0.14770348,0.015304939,-0.28281662,14.476254,0.1020358,1
1774620089318,0.10105213,-1.5813713,-3.1124911,0.12478771,0.09549349,-0.24807657,12.198547,0.08623296,1
1774620089351,0.20919989,-0.95024633,-3.346643,-0.033790775,0.21894889,-0.22143032,12.146751,0.098111816,1
1774620089358,0.16477123,-0.24226046,-3.128983,-0.14319028,0.3121608,-0.17348373,9.876374,0.1480444,1
1774620089381,-0.13198438,0.37361288,-1.1620278,-0.072477795,0.29697242,-0.10353733,1.5073152,0.10416563,1
1774620089398,-0.26688093,0.6448159,0.3116436,0.047230475,0.3079307,-0.05609035,0.58413476,0.100198165,1
1774620089418,-0.22431329,0.94205284,0.73007774,0.11018223,0.34067228,-0.0054624807,1.4707935,0.12822756,1
1774620089438,-0.41356778,1.3092804,1.075921,0.12891787,0.29815486,0.11899215,3.0428596,0.119675264,1
1774620089458,-0.24529159,1.7623997,1.3011723,0.0060953293,0.3626221,0.21168779,4.85927,0.17634365,1
1774620089478,0.40516508,1.7858572,1.3069959,-0.17539893,0.41181776,0.19886428,5.061683,0.23990566,1
1774620089498,0.7549561,1.7895842,2.988853,-0.22301243,0.26914376,0.17178503,12.705812,0.151683,1
1774620089518,0.4027796,2.0714126,4.9103484,-0.012873468,0.17215142,0.17181833,28.564503,0.059323378,1
1774620089538,-0.03569001,1.4628468,5.3951216,0.14515543,0.3802253,0.20973928,31.248531,0.20963193,1
1774620089562,-0.32254273,1.0230055,3.1772294,-0.1362456,0.47984895,0.2632316,11.24536,0.31810877,1
1774620089577,-0.8935225,0.62483215,2.8444362,-0.3646872,0.0494621,0.34065562,9.279615,0.25148952,1
1774620089598,-1.0717585,-0.18051672,5.1114755,-0.14097531,-0.41459897,0.3263999,27.308435,0.29830322,1
1774620089617,0.07988688,-1.3181977,5.161716,0.31908882,-0.3800421,0.15128407,28.38734,0.26913655,1
1774620089638,1.3311698,-1.8373361,2.8006167,0.6577293,0.055041157,-0.04316692,12.991271,0.43750077,1
1774620089659,1.4700354,-1.5888429,0.014331341,0.58408576,0.3610067,-0.17075248,4.6856313,0.5006384,1
1774620089676,0.81714815,-1.4592853,-1.7485542,0.20349406,0.29778847,-0.19226933,5.8546867,0.16705531,1
1774620089696,-0.16890383,-1.2690291,-2.028852,-0.15701301,-0.049861792,-0.08120444,5.755204,0.033733446,1
1774620089717,-0.6376531,-1.3478627,-1.5503831,-0.3115446,-0.36288857,0.032641653,4.627023,0.22981364,1
1774620089737,-0.23130715,-1.8344789,-1.8050532,-0.27285758,-0.39454767,0.09306202,6.6770325,0.23877968,1
1774620089761,0.30560756,-2.1722622,-2.601943,-0.22581029,-0.28183404,0.10481968,11.582226,0.14140788,1
1774620089778,0.67334163,-2.4045491,-3.146696,-0.23746803,-0.2784533,0.0673817,16.136942,0.1384676,1
1774620089797,0.9588087,-2.3883379,-3.1123753,-0.2531227,-0.35376224,-0.020767419,16.310352,0.1896501,1
1774620089816,1.0233116,-2.132277,-2.9984012,-0.2226627,-0.39135012,-0.08346937,14.584182,0.20970073,1
1774620089836,0.7349137,-1.6794229,-3.03893,-0.16782139,-0.30340084,-0.12107389,12.5956545,0.13487498,1
1774620089862,0.64462245,-1.2972479,-3.1782384,-0.17463285,-0.14602144,-0.16509016,12.199589,0.07907365,1
1774620089876,0.66969115,-0.8744292,-2.8548884,-0.1906539,-0.06558308,-0.23633556,9.363501,0.096504554,1
1774620089897,0.61209375,-0.624722,-1.557034,-0.12238955,-0.08605073,-0.29667267,3.1892915,0.110398605,1
1774620089916,0.37964225,-0.39695406,-0.27388906,-0.05254307,-0.14392304,-0.31091174,0.376716,0.12014073,1
1774620089936,0.15302674,0.24482203,0.29207468,-0.03429039,-0.27260777,-0.25798565,0.16866264,0.14204742,1
1774620089961,0.023812532,0.6319413,0.82302284,-0.07309399,-0.39909416,-0.20870674,1.0772835,0.20817739,1
1774620089979,0.26215616,0.55943584,0.99317646,-0.106901415,-0.43564948,-0.25625363,1.3680937,0.2668843,1
1774620089996,0.66614616,0.27211237,1.4721355,-0.058505166,-0.35111427,-0.38771957,2.684979,0.27703053,1
1774620090015,0.47338068,-0.05906725,2.3625154,0.09006432,-0.4022751,-0.50637865,5.809057,0.42635614,1
1774620090036,0.2483349,0.6705084,3.7383723,0.2974887,-0.53807104,-0.537205,14.486679,0.66660917,1
1774620090059,0.42758912,1.8820076,3.5331616,0.27352372,-0.3953304,-0.506795,16.208017,0.4879425,1
1774620090076,0.645166,2.5202231,1.4198947,0.03439031,0.03254173,-0.44212785,8.783865,0.1977187,1
1774620090095,0.15902072,2.0987463,1.3456235,-0.21162117,0.13138266,-0.38537136,6.2407265,0.210556,1
1774620090116,-0.69899416,1.2893901,3.7863326,-0.26301512,-0.17011964,-0.31267706,16.487434,0.19588459,1
1774620090135,-0.9037986,0.25926018,5.124354,-0.08177067,-0.20434341,-0.3226361,27.14307,0.15253672,1
1774620090164,0.18230455,-0.5962825,3.7907076,-0.021600114,0.088398926,-0.43150267,14.758251,0.19447549,1
1774620090179,0.57792175,-0.8678961,1.8288016,-0.054491576,0.280152,-0.47833344,4.431752,0.31025738,1
1774620090195,-0.07974446,-0.9493737,1.653368,-0.13153253,0.16194257,-0.46346152,3.6412952,0.25832278,1
1774620090215,-0.49248967,-1.3413105,1.4856343,-0.21441902,-0.053092647,-0.47382024,4.2487693,0.27329996,1
1774620090234,-0.49676484,-1.7323675,0.509747,-0.21911542,-0.13542956,-0.47928274,3.5077147,0.29606467,1
1774620090255,-0.5566733,-1.8879099,-0.42834568,-0.13474675,-0.112347245,-0.46944028,4.0575686,0.25115278,1
1774620090275,-0.52742285,-1.908865,-1.2485828,-0.017336715,-0.0646005,-0.42079422,5.4808993,0.18154156,1
1774620090294,-0.6342266,-1.8446746,-1.8245068,0.060420368,-0.16675554,-0.33084646,7.133893,0.1409174,1
1774620090314,-0.49845177,-1.8467646,-2.346325,0.056656584,-0.30851358,-0.24422951,9.164234,0.15803866,1
1774620090334,-0.10974705,-1.8091598,-3.1960468,0.041484877,-0.2958233,-0.20725785,13.499819,0.13218823,1
1774620090362,0.35154778,-1.7865798,-3.6614017,0.1462546,-0.1138794,-0.1910203,16.721317,0.070847675,1
1774620090380,0.40121877,-1.4467106,-3.1763554,0.28283328,0.01390601,-0.12635317,12.343182,0.09615317,1
1774620090393,0.28334326,-0.91465473,-2.7677798,0.3813078,0.12748565,-0.0044965544,8.577481,0.16166846,1
1774620090414,0.32804948,-0.61583996,-2.6614323,0.39318204,0.30591556,0.04295042,7.570097,0.2500212,1
1774620090434,0.50697035,-0.5622654,-2.4058833,0.33449367,0.39942726,0.06616596,6.3614354,0.2758061,1
1774620090455,0.14209157,-0.28063202,-1.2662349,0.2334711,0.44497567,0.11311332,1.7022951,0.2653067,1
1774620090478,-0.16406727,0.3549919,0.16456795,0.18652374,0.19858116,0.24571171,0.18001993,0.13459983,1
1774620090493,-0.8321926,0.7778835,1.9332681,0.23981623,-0.078589775,0.4305534,5.0351725,0.24906442,1
1774620090513,-0.51283985,1.0859699,1.7371659,0.20913973,0.06318492,0.5238819,4.460081,0.32218403,1
1774620090533,0.654177,1.1608167,0.43938494,0.11840926,0.40439013,0.4977186,1.9685019,0.42527592,1
1774620090553,1.0831672,1.4019623,1.2462349,-7.6607964E-4,0.5274625,0.44229442,4.6918507,0.4738416,1
1774620090576,0.7375437,1.3943896,2.7418761,-0.3158746,0.35033154,0.39459762,10.006178,0.37821627,1
1774620090593,-0.21936595,1.3229651,2.7414508,-0.85704327,0.2599841,0.4782169,9.3139105,1.0308063,1
1774620090613,-0.7041061,1.3219762,2.3800712,-1.2349037,0.17493261,0.46754172,7.908125,1.7741838,1
1774620090632,-0.58910483,0.41325378,4.8273206,-1.0121411,-0.10823373,0.32443473,23.820847,1.1414021,1
1774620090653,-0.28077704,-0.3407302,7.724164,-0.12748565,-0.24777679,0.11274694,59.85764,0.0903578,1
1774620090677,0.033605576,-1.2559142,7.9808445,0.6809782,-0.11522837,-0.16675554,65.27233,0.5048163,1
1774620090694,0.2066569,-1.120326,3.5435858,0.82478464,0.13194889,-0.32601684,13.854837,0.80396724,1
1774620090712,-1.021635,-0.40388823,-0.45850468,0.5244814,0.22397837,-0.17276761,1.4170904,0.3550957,1
1774620090732,-2.5639124,0.28233337,-2.2613192,0.14012596,0.11707695,0.19656605,11.766923,0.071980506,1
1774620090755,-2.742118,0.13684273,-2.3674088,-0.061119832,-0.15722951,0.49109036,13.142561,0.2696265,1
1774620090776,-1.5553637,-0.9538536,-2.2199922,-0.079305895,-0.377594,0.61061543,8.257359,0.52171785,1
1774620090792,-0.4367984,-1.8789487,-2.9803681,-0.063268185,-0.3763949,0.62641996,12.603835,0.53807795,1
1774620090812,0.3103664,-2.157054,-4.238529,-0.17015295,-0.257919,0.6189757,22.714338,0.47860515,1
1774620090833,0.5581272,-2.076083,-4.9930353,-0.28814587,-0.18071152,0.5931122,29.552027,0.46746674,1
1774620090853,0.7184793,-1.8484998,-4.2501707,-0.24296382,-0.16189261,0.5495622,21.997116,0.38725927,1
1774620090879,0.8087467,-1.5715775,-3.09031,-0.07940582,-0.1659062,0.4968526,12.6739435,0.28069267,1
1774620090892,0.94590527,-1.2593656,-2.479313,0.11134801,-0.103120975,0.40798736,8.62773,0.189486,1
1774620090912,1.3017323,-1.159987,-2.511322,0.18609074,0.045232005,0.28351608,9.346815,0.117057055,1
1774620090932,1.3646376,-0.9073515,-2.8516207,0.112447165,0.10523602,0.16512346,10.817263,0.05098474,1
1774620090954,1.2417274,-0.32528973,-2.198976,0.026379785,0.044316042,0.08193721,6.483196,0.00937351,1
1774620090979,1.1465065,0.09787941,-1.0159373,-0.008759954,-0.065616384,-7.327718E-4,2.3561864,0.0043827835,1
1774620090993,1.1561048,0.32883358,0.02829218,0.041984495,-0.12337213,-0.08163744,1.4455104,0.023648053,1
1774620091011,1.009563,0.5054159,1.2627835,0.17223468,-0.09814146,-0.13689509,2.8692849,0.0580368,1
1774620091031,0.8225459,0.61351633,2.0878997,0.29559016,-0.08924828,-0.18334284,5.4123087,0.1289534,1
1774620091052,1.0170214,0.8398895,2.853125,0.306232,-0.20136236,-0.33216214,9.88007,0.24465653,1
1774620091076,1.6814537,1.3094378,3.1137176,0.19545023,-0.24497893,-0.48759302,14.237151,0.3359624,1
1774620091091,1.5584103,2.0512137,2.5359254,-0.102538094,0.057522587,-0.52801204,13.067039,0.29261962,1
1774620091112,0.9155611,2.3696017,2.186792,-0.39278233,0.2663459,-0.4760352,11.235323,0.4518276,1
1774620091132,-0.38851038,2.2095475,4.7321887,-0.34435278,0.08585088,-0.31888896,27.426651,0.22763938,1
1774620091152,-1.2756236,1.5593977,7.90061,-0.03847052,-0.29950383,-0.23793434,66.47858,0.14779527,1
1774620091180,-0.6451363,0.23430872,7.804125,0.13686179,-0.46486044,-0.3469508,61.375465,0.35520124,1
1774620091191,0.1651783,-0.58709,5.11655,0.15511447,-0.38070828,-0.47856662,26.55104,0.3980253,1
1774620091211,0.008292433,-0.9007869,3.2214193,0.17056929,-0.2751225,-0.51700383,11.189028,0.37207925,1
1774620091231,-0.57754886,-0.9784565,2.3125963,0.18522473,-0.29955378,-0.46785814,6.6390414,0.3429319,1
1774620091251,-1.0556599,-1.195252,1.2795401,0.1759485,-0.4237586,-0.37166518,4.180268,0.34866422,1
1774620091270,-1.1504545,-1.5238428,0.029481888,0.20177871,-0.5595712,-0.2787031,3.6465116,0.43151003,1
1774620091291,-0.9014613,-1.9691205,-1.065908,0.24118185,-0.64182484,-0.22566041,5.8262277,0.5210304,1
1774620091312,-0.46370748,-2.3985987,-2.3281584,0.2861807,-0.6196918,-0.21355303,11.388621,0.51152223,1
1774620091331,-0.08179418,-2.6144402,-3.1510057,0.38085815,-0.53603923,-0.21675058,16.770824,0.4793718,1
1774620091350,-0.115693286,-2.5572422,-3.2569304,0.46021402,-0.48036522,-0.19180302,17.160467,0.47933608,1
1774620091370,-0.28965628,-2.2216651,-3.5411549,0.46486044,-0.42982063,-0.14200784,17.559475,0.42100722,1
1774620091392,-0.30112046,-1.8532486,-3.596365,0.50746113,-0.33299482,-0.09329517,16.459045,0.37710634,1
1774620091410,-0.34303474,-1.6543851,-3.0662422,0.6471541,-0.19488399,-0.024114855,12.256504,0.45736971,1
1774620091430,-0.5654858,-1.427145,-2.433217,0.8009529,-0.073660225,0.078623086,8.277062,0.653133,1
1774620091450,-0.7676896,-1.2071233,-2.043898,0.8587253,-0.039036755,0.20457657,6.2240133,0.7807846,1
1774620091471,-0.5252304,-0.9510174,-2.0785608,0.7497588,0.0053292494,0.29061064,5.500716,0.6466211,1
1774620091497,0.03573826,-0.8909626,-2.7206287,0.541535,0.10616864,0.3170737,8.196912,0.40506768,1
1774620091513,0.37026995,-0.66154623,-2.4308681,0.28225037,0.21673392,0.4138995,6.4838634,0.29795167,1
1774620091529,0.2494914,-0.058122158,-1.954627,-0.14300708,0.32555053,0.50965947,3.8861911,0.38618696,1
1774620091550,0.4626917,-0.015537262,-1.5288701,-0.55439186,0.3679014,0.4838792,2.5517688,0.6768409,1
1774620091569,0.7678778,0.16986322,0.85203123,-0.55987096,0.3334112,0.3693836,1.3444471,0.56106275,1
1774620091594,0.9844785,0.38781595,3.5446224,-0.39892763,0.43834743,0.23826742,13.683948,0.40806308,1
1774620091609,0.4969138,0.27734756,3.0777206,-0.6673386,0.6304835,0.21878235,9.796209,0.89071596,1
1774620091629,-0.56525934,0.88685465,1.5524335,-1.16141,0.5669322,0.31960508,3.516079,1.7724327,1
1774620091649,-1.358919,0.8584595,3.337387,-1.2794695,0.18211044,0.30884665,13.7217655,1.7655927,1
1774620091669,-0.7579664,-0.11321354,6.123539,-0.7624657,-0.054041922,0.086616956,38.08506,0.59177697,1
1774620091698,0.32160157,-0.87389135,6.866067,-0.034473583,0.07724081,-0.20998909,48.00999,0.05124999,1
1774620091709,0.54575276,-0.5165515,3.8892865,0.2552877,0.34623468,-0.3209041,15.691221,0.28802973,1
1774620091728,-0.45132774,0.3230796,0.04087162,0.028644716,0.541535,-0.15220004,0.30974764,0.31724554,1
1774620091748,-1.4550346,0.7164874,-2.3833356,-0.502898,0.5213505,0.113629594,8.310768,0.5376244,1
1774620091769,-1.1807302,0.378757,-2.7479649,-0.8984116,0.2089732,0.28944486,9.088892,0.9345915,1
1774620091797,-0.4739563,-0.5654621,-1.2828465,-0.9124175,-0.09740869,0.3352098,2.1900768,0.9543597,1
1774620091808,0.29169738,-1.2687807,-0.45067263,-0.6195919,-0.22544391,0.29890427,1.8979977,0.5240629,1
1774620091829,0.6563828,-1.6898713,-0.6858692,-0.27637154,-0.17889625,0.2134198,3.7569199,0.15393311,1
1774620091848,0.8161961,-1.6600277,-1.6936955,-0.045531776,-0.14472243,0.13984284,6.290473,0.042573743,1
1774620091868,0.894076,-1.2773223,-2.49371,0.060953293,-0.18280992,0.06709858,8.649514,0.04163699,1
1774620091902,1.0523659,-1.1793008,-2.9970393,0.07291079,-0.18345942,-0.10688476,11.480469,0.05039769,1
1774620091911,1.3578621,-1.1507378,-3.5340576,0.10521937,-0.10417017,-0.2799022,15.65755,0.10026778,1
1774620091929,0.6083367,-0.47432137,-3.0060015,0.19003771,-0.10581891,-0.2876296,9.6311,0.13004276,1
1774620091947,-0.38190517,0.42069006,-2.35503,0.14815314,-0.19899751,-0.17884628,5.868998,0.09353536,1
1774620091969,-0.7243105,0.8296609,-2.4240336,-0.0060287137,-0.32743242,-0.0946941,7.0889015,0.11621531,1
1774620091993,-0.36720952,0.860312,-1.8982606,-0.06967994,-0.3439864,-0.0784732,4.4783726,0.12933998,1
1774620092012,0.29608747,0.7175183,-0.8028555,-0.002598009,-0.2541386,-0.12846822,1.2470772,0.08109726,1
1774620092027,0.48816094,0.64382935,0.21726036,0.11194755,-0.1503348,-0.17967898,0.7000194,0.067417346,1
1774620092048,0.31642988,0.5758829,1.2958484,0.26982656,-0.08235356,-0.23753464,2.110992,0.13601118,1
1774620092067,0.11855036,0.44893265,2.433847,0.40289128,-0.1665224,-0.3045333,6.139206,0.2827916,1
1774620092087,0.12821272,0.64548016,3.0600052,0.35769257,-0.26416424,-0.425857,9.796716,0.37908092,1
1774620092112,0.6115432,1.6188831,1.8212323,0.013256508,-0.015854517,-0.391933,6.311655,0.15403856,1
1774620092127,-0.17133033,2.7942967,0.5680566,-0.51598793,0.39494735,-0.18201053,8.160137,0.4553548,1
1774620092148,-0.9998059,2.9839525,2.2613673,-0.78045195,0.4219933,0.031625766,15.017366,0.78818375,1
1774620092168,-1.5419555,1.4909334,5.9171696,-0.62866825,-0.019468416,0.09296209,39.613407,0.40424475,1
1774620092187,-0.96862257,-0.185709,8.099409,-0.24013266,-0.4277389,-0.07161179,66.57314,0.24575251,1
1774620092219,0.07523021,-1.3478184,6.457782,0.060886677,-0.40122586,-0.2482098,43.52522,0.22629748,1
1774620092226,0.18260974,-0.9936757,3.003955,0.1465044,-0.1486028,-0.26101664,10.044482,0.11167602,1
1774620092246,-0.3195774,-0.65588427,0.51746655,0.058538474,0.040618874,-0.21994813,0.80008554,0.053453825,1
1774620092266,-0.419814,-0.9757428,-0.8495388,-0.07261103,0.1548147,-0.21653406,1.850034,0.07612695,1
1774620092286,-0.4931199,-1.6041131,-1.6121411,-0.15489797,0.25836867,-0.23951645,5.415345,0.14811587,1
1774620092314,-0.73727286,-2.0381851,-1.9929328,-0.15449828,0.3216202,-0.23337117,8.669551,0.18177137,1
1774620092326,-1.1370826,-2.074353,-1.9039445,-0.057605855,0.305366,-0.16117649,9.2209015,0.12254469,1
1774620092347,-1.3171911,-2.0661206,-2.0765343,0.057472624,0.22264606,-0.06873067,10.315842,0.057598278,1
1774620092366,-1.0902487,-2.1008375,-2.6209946,0.088765316,0.12179001,0.02051761,12.471773,0.02313306,1
1774620092386,-0.6625039,-2.1596737,-3.577797,0.043683194,0.069513395,0.06669889,17.903732,0.011189075,1
1774620092410,-0.26732963,-2.137343,-4.1809616,-0.033657543,0.027861983,0.1027879,22.12014,0.012474472,1
1774620092427,0.047824245,-1.8381197,-4.253765,-0.118942186,0.06180264,0.13662863,21.475489,0.036634192,1
1774620092445,0.50749874,-1.5303154,-4.1806326,-0.16362461,0.21826607,0.14324023,20.07711,0.09493086,1
1774620092466,0.6255046,-1.3173599,-4.1407223,-0.20670827,0.5272293,0.1362456,19.272274,0.3392619,1
1774620092485,0.30028117,-0.59900856,-3.6181026,-0.13975957,0.8757456,0.21232063,13.539646,0.83154315,1
1774620092513,-0.20640491,0.15020704,-1.5365682,-0.02486428,0.8901512,0.3132433,2.4262068,0.89110875,1
1774620092525,-0.22490355,0.5357175,0.26456547,-0.101388976,0.68507504,0.34743378,0.40756974,0.6003178,1
1774620092545,-0.09745255,0.69245386,0.32072353,-0.20016328,0.5851183,0.4139994,0.5918529,0.5538243,1
1774620092568,-0.27957016,1.0627947,0.9484358,-0.12720253,0.5263633,0.54834646,2.1072226,0.5939226,1
1774620092586,-0.19261128,1.1253395,1.9518375,-0.14024253,0.4644441,0.6114481,5.1131577,0.60924506,1
1774620092612,0.7184425,0.9829531,1.7219467,-0.3230358,0.34936562,0.54708076,4.447457,0.5257058,1
1774620092625,1.7066904,1.0128474,1.7436705,-0.53400743,0.48830914,0.41932866,6.9790387,0.69944626,1
1774620092645,1.458786,0.62204504,2.5194921,-0.6317492,0.5685976,0.37875977,8.862837,0.8658693,1
1774620092665,0.23387492,0.69516516,4.019165,-0.7138363,0.68895537,0.4425109,16.69164,1.1800376,1
1774620092685,-0.068317175,0.43617392,4.4983025,-0.7253941,0.608084,0.38570443,20.429642,1.0447308,1
1774620092715,0.53241885,-0.5693183,6.238695,-0.5479301,0.25880167,0.17997874,39.52891,0.39959806,1
1774620092724,1.1898305,-1.0028989,7.1525087,-0.4027247,-0.16990314,-0.066332504,53.579887,0.19545427,1
1774620092745,1.3842762,-1.0719812,5.6845284,-0.34656775,-0.38623735,-0.2946742,35.379227,0.3561214,1
1774620092765,1.0488551,-0.98285246,3.6859522,-0.20655838,-0.28138438,-0.41854593,15.65234,0.29702425,1
1774620092784,-0.049726307,-0.60158014,2.4620056,0.033924006,0.010658499,-0.39176646,6.425843,0.1547454,1
1774620092813,-0.8423388,-0.18899727,1.4115992,0.15294947,0.14022587,-0.25282294,2.7378669,0.10697627,1
1774620092824,-1.163172,-0.03660965,0.31388664,0.08313629,-0.060536943,-0.110698506,1.4528342,0.022830524,1
1774620092844,-0.641323,-0.32366753,-0.5739136,-0.00388036,-0.3564102,-0.018502489,0.84543264,0.12738563,1
1774620092864,0.076856196,-0.8231275,-1.5558138,-0.058671705,-0.51049215,0.0014488897,3.1040022,0.2640467,1
1774620092884,0.741984,-1.3054798,-2.7688966,-0.06773143,-0.4544018,-0.045481812,9.921606,0.21313713,1
1774620092904,1.0900042,-1.4430664,-3.3754134,0.004363323,-0.3156248,-0.11825938,14.663965,0.113623336,1
1774620092926,1.2247587,-1.4172244,-3.1528673,0.12252278,-0.2139194,-0.19739874,13.449132,0.0997396,1
1774620092944,1.1950752,-1.4034216,-3.0031161,0.14314032,-0.2352031,-0.280152,12.416504,0.15429479,1
1774620092964,1.0679904,-1.2548356,-2.9100366,0.09855781,-0.3391068,-0.35302946,11.183529,0.24933687,1
1774620092984,0.76359856,-0.96314955,-2.5741649,0.08746631,-0.41301683,-0.39754537,8.137064,0.33627558,1
1774620093004,0.38954747,-0.5674181,-2.0401793,0.16610605,-0.41376626,-0.431969,4.636042,0.38539094,1
1774620093031,0.41615587,-0.3438034,-1.0627923,0.36558652,-0.39043415,-0.50536275,1.4209139,0.5414839,1
1774620093043,0.49092108,-0.2299738,-0.39264965,0.54884607,-0.34303713,-0.5493124,0.44806522,0.7206506,1
1774620093064,0.20950547,0.22820377,-0.4268093,0.5896648,-0.3229525,-0.5370052,0.2781357,0.7403775,1
1774620093083,-0.27975398,0.74669695,-0.14104462,0.62751913,-0.36173946,-0.4458417,0.6557122,0.7234105,1
1774620093103,-0.7968923,1.0652285,0.8249903,0.62607026,-0.45102105,-0.34921572,2.450358,0.7173356,1
1774620093125,-0.74424225,1.0815454,1.2500038,0.5365888,-0.60360414,-0.3230691,3.2861464,0.7566391,1
1774620093143,-0.30143672,0.9329319,1.837142,0.47162193,-0.80576587,-0.3667856,4.3363166,1.0062175,1
1774620093162,-0.387946,1.4356403,2.6799831,0.46810797,-0.82152045,-0.36337155,9.393875,1.0260599,1
1774620093183,-0.20695165,2.0222921,1.8964624,0.4229592,-0.345835,-0.35239664,7.729064,0.42267972,1
1774620093203,-0.12053352,1.8895512,0.79401207,0.31127813,0.32523412,-0.2916765,4.215387,0.2877465,1
1774620093224,-0.7407678,1.7218347,1.5900221,0.097475305,0.6236055,-0.1296673,6.0416217,0.41519883,1
1774620093242,-1.6123048,1.5679641,3.3641405,-0.08523469,0.5118078,0.085567765,16.375479,0.276534,1
1774620093262,-1.6099119,0.8625083,4.8208914,-0.14966865,0.1933685,0.19196956,26.57673,0.09664439,1
1774620093282,-0.7499219,-0.5176668,5.092765,-0.11183097,-0.058072165,0.11772645,26.766617,0.029738061,1
1774620093302,0.07030186,-1.5352068,3.9333258,-0.035073124,-0.086267225,0.025830206,17.832853,0.009339358,1
1774620093324,0.052559033,-1.8023698,2.368658,0.0872165,-0.019768186,-0.011457887,8.86184,0.008128782,1
1774620093342,-0.0715625,-1.6536481,0.973691,0.17694774,0.0070612556,-0.061236408,3.6877475,0.035110265,1
1774620093362,0.047493413,-1.9504368,-0.3189783,0.18878867,-0.003147588,-0.09749196,3.9082067,0.04515575,1
1774620093383,-0.09297708,-1.955431,-1.6236715,0.13509648,-0.021017227,-0.08789931,6.468664,0.026419071,1
1774620093402,-0.18715066,-1.9546244,-2.3410926,0.059937403,-0.10688476,-0.06366788,9.336296,0.019070443,1
1774620093426,-0.07900661,-1.9700751,-2.8669019,0.027195826,-0.12678617,-0.061852604,12.1065645,0.020640092,1
1774620093442,0.3269302,-1.8002133,-2.9058914,0.08583423,-0.086567,-0.09649272,11.791857,0.024172205,1
1774620093461,0.64120495,-1.6394005,-2.6811013,0.19759858,-0.05099426,-0.14780341,10.287083,0.063491456,1
1774620093482,0.44869196,-1.0704103,-2.2896485,0.28005207,-0.06578293,-0.106784835,6.589593,0.09415956,1
1774620093502,-0.08582941,-0.2023449,-2.096458,0.26311505,-0.10338744,-0.03155915,4.443446,0.08091447,1
1774620093526,-0.3183356,0.30043077,-2.1819973,0.26244888,-0.073760144,0.08078809,4.9527082,0.08084668,1
1774620093541,-0.5017071,0.662992,-1.7581949,0.38935164,0.074609496,0.22834168,3.782518,0.2093012,1
1774620093562,-0.26051223,0.6633234,-1.0152311,0.48666042,0.19608307,0.3030178,1.5385588,0.36710674,1
1774620093581,0.3367687,0.29544592,-0.66785,0.42380857,0.18174407,0.27142534,0.64672506,0.28631634,1
1774620093602,0.56796455,0.12740278,-0.31087875,0.4169305,0.09834131,0.27492267,0.4354608,0.25908452,1
1774620093623,0.3167935,0.30147457,0.6542778,0.50984263,0.027262442,0.3181562,0.6193245,0.36190614,1
1774620093642,0.48373958,0.2759943,1.0136786,0.5565402,0.08448526,0.24711064,1.3377211,0.37793842,1
1774620093661,1.0747774,0.29640293,0.21856833,0.38530475,0.28606412,0.19095367,1.2907733,0.26675573,1
1774620093681,0.7140287,0.5719032,-0.70339584,-0.0467142,0.44682425,0.2026114,1.331676,0.2428855,1
1774620093701,0.10173012,0.76671267,-0.7348299,-0.59058076,0.46196267,0.26957676,1.1381724,0.63486683,1
1774620093729,-0.8003706,0.72993183,0.4233384,-1.0398198,0.3522301,0.33995616,1.3526089,1.3208615,1
1774620093741,-1.2672412,0.3354206,2.3080573,-1.1194588,0.197915,0.3369751,7.045536,1.4059106,1
1774620093761,-0.9641727,-0.3050022,4.7298784,-0.7420314,-0.012157351,0.20381048,23.394405,0.59229714,1
1774620093780,-0.56085265,-1.1283464,5.7286053,-0.2573528,-0.055074465,-0.016187595,34.40464,0.0695257,1
1774620093800,-0.72643286,-1.0919919,3.4339018,0.035805896,0.1609933,-0.101255745,13.511832,0.03745363,1
1774620093820,-1.4064116,-0.32808208,0.48599625,0.07062921,0.38921842,-0.026662901,2.321824,0.15719037,1
1774620093845,-2.0878785,0.14717579,-1.4293723,-0.11371286,0.44404307,0.20454326,6.4240026,0.2519428,1
1774620093860,-2.3663218,0.45486927,-2.506454,-0.48451206,0.15083441,0.45853198,12.088696,0.46775454,1
1774620093880,-1.6259658,0.023778915,-2.8720083,-0.80400056,-0.25347242,0.55236006,10.892763,1.0157669,1
1774620093900,-0.47882336,-0.95609903,-2.854279,-0.8515475,-0.4034575,0.4799822,9.290306,1.118294,1
1774620093920,0.44581747,-1.3875501,-2.970563,-0.671219,-0.20529269,0.4022251,10.948293,0.6544651,1
1774620093946,0.5998352,-1.1932163,-3.079287,-0.4644441,0.029627297,0.34954882,11.265576,0.33877048,1
1774620093960,0.8713144,-0.87129545,-2.968789,-0.41346648,0.06296841,0.24920903,10.332053,0.2370247,1
1774620093980,1.0860388,-0.7644205,-2.4826322,-0.3344104,-0.01565467,0.11784303,7.9272814,0.12596236,1
1774620094000,1.3629773,-0.57660246,-1.6764307,-0.20317765,-0.050144907,-0.027329057,5.000597,0.044542544,1
1774620094020,1.6499363,-0.29074097,-1.3820682,-0.101705395,-0.080604896,-0.17161849,4.7169323,0.04629404,1
1774620094042,1.6058989,0.055372715,-1.1667938,-0.0023148928,-0.15541424,-0.30055302,3.9433851,0.11449107,1
1774620094063,1.0348014,0.25814295,-0.28996563,0.12808518,-0.16510682,-0.44699082,1.2215317,0.24346685,1
1774620094079,1.0235668,0.39681625,0.1718483,0.19450095,-0.28694677,-0.5264965,1.2346841,0.39736766,1
1774620094101,0.41477662,0.89168596,0.91484165,0.1689039,-0.6426242,-0.5950274,1.8040787,0.795552,1
1774620094125,0.434725,0.90323544,1.2610188,0.30563247,-0.754322,-0.7137364,2.5949883,1.1718326,1
1774620094140,0.84903413,0.651196,0.93171597,0.50249827,-0.48364604,-0.83284515,2.0130098,1.1800491,1
1774620094159,0.9392021,0.9013529,0.28841114,0.592496,-0.03882025,-0.9432605,1.7777185,1.2422988,1
1774620094178,0.6646102,0.96639585,0.009624481,0.574593,0.3810913,-0.9775176,1.3757203,1.4309283,1
1774620094199,-0.33548006,1.231709,0.48876858,0.4174468,0.64309055,-0.8339776,1.8685486,1.2833459,1
1774620094219,-1.6742355,1.9492393,1.4975328,0.10936619,0.5379711,-0.46446076,8.845203,0.51709765,1
1774620094243,-2.8655844,2.3537803,2.9849339,-0.28128445,0.14886926,-0.07256106,22.661686,0.10654811,1
1774620094258,-2.468141,1.5878749,4.122095,-0.47849998,-0.23320463,0.124837674,25.604736,0.29893106,1
1774620094278,-0.8686364,0.35581636,4.8372917,-0.40492305,-0.4064219,0.10518606,24.280525,0.34020555,1
1774620094298,0.46392986,-0.48114824,3.9462566,-0.17270099,-0.23483671,-0.0151883615,16.019676,0.0852046,1
1774620094318,0.6133163,-0.7347808,2.423665,0.124254785,0.010458652,-0.050944295,6.7902117,0.018143956,1
1774620094342,-0.27389133,-0.6018567,1.1710196,0.22319563,-0.024814319,0.058888208,1.8085347,0.05389986,1
1774620094361,-0.95915353,-0.589571,-0.31016684,-0.11759322,-0.4499552,0.17629823,1.363773,0.24736892,1
1774620094378,-0.8855175,-0.7881603,-2.1213694,-0.588116,-0.99398834,0.23410393,5.9055457,1.3886979,1
1774620094398,-0.55327195,-1.0442114,-2.5518713,-0.72429496,-1.3853217,0.21821612,7.9085345,2.4913378,1
1774620094420,-0.3134862,-1.452553,-2.4372392,-0.42917112,-1.2894952,0.11509514,8.148319,1.8602327,1
1774620094442,-0.052877605,-1.6795776,-2.9154706,0.20905647,-0.4834462,-0.06971324,11.323746,0.28228477,1
1774620094459,0.681458,-1.4424005,-2.7232943,0.97831696,0.263598,-0.29559016,9.961236,1.1139615,1
1774620094479,0.076854706,-1.2682045,-1.2142515,1.3563607,0.40528944,-0.32073754,3.088656,2.1068463,1
1774620094498,-1.1759884,-0.19700956,-1.5720191,1.1481369,0.10795061,-0.15040141,3.8930056,1.3524921,1
1774620094517,-1.1698644,0.7478404,-2.290052,0.5918798,-0.3175067,0.021849923,7.172186,0.4516096,1
1774620094537,-0.1251527,0.9445119,-2.2108827,0.2315892,-0.38826913,0.017386677,5.795768,0.20468877,1
1774620094558,1.0282305,0.4656396,-0.95325804,0.38761964,0.06719851,-0.14896917,2.182779,0.17695644,1
1774620094578,1.2330322,0.5988412,0.7658324,0.89637977,0.5544418,-0.1844753,2.4654784,1.1449336,1
1774620094597,-0.37919432,1.6384592,2.4376717,1.2251778,0.7205812,0.009076378,8.77058,2.0203803,1
1774620094617,-1.6994464,2.1483922,1.3928013,0.993955,0.6612433,0.23531967,9.443603,1.4805646,1
1774620094637,-1.4221624,2.0842528,-0.8092799,0.497219,0.50134915,0.3916332,7.0215898,0.6519543,1
1774620094659,-0.8462078,1.669703,-1.2160702,0.17010298,0.3309131,0.49733555,4.9828024,0.38578117,1
1774620094677,-0.41137004,1.2271647,-0.48344517,0.04768013,0.2576026,0.5565735,1.9088778,0.37840658,1
1774620094697,-0.23915562,0.68677044,-0.37996674,-0.15103427,0.32370195,0.5170871,0.6732238,0.3949734,1
1774620094716,-0.51517195,0.12456226,-0.6130986,-0.42717266,0.45538437,0.5748595,0.6568078,0.72031486,1
1774620094736,-1.4948146,0.08929014,0.24139357,-0.64485586,0.37279767,0.77862,2.3007145,1.1610663,1
1774620094758,-1.7249237,-0.18355083,3.208943,-0.6753492,-0.1144956,0.8351267,13.306368,1.1666424,1
1774620094776,-0.60613465,-0.890522,5.796903,-0.49838474,-0.48842573,0.7024284,34.764515,0.98035276,1
1774620094796,0.036226332,-1.0511856,6.0477104,-0.13714491,-0.38117456,0.5365222,37.681107,0.45195884,1
1774620094816,0.18707478,-1.0414124,5.347864,0.22592688,0.069629975,0.37059933,29.719189,0.19323516,1
1774620094836,-0.2688763,-1.2707267,4.0022306,0.2697766,0.28644717,0.25863513,17.704891,0.22172353,1
1774620094861,-1.0878704,-1.251986,3.0477724,0.08819908,0.22019793,0.21263705,12.039847,0.10148072,1
1774620094878,-1.6144744,-1.252758,2.4626894,-0.049362175,0.0912967,0.207058,10.240768,0.053644724,1
1774620094895,-1.703561,-1.1760163,2.1329427,-0.037970904,0.08856547,0.22274597,8.834579,0.0589014,1
1774620094916,-1.685101,-1.1606293,1.4121966,0.069030434,0.20332752,0.2769711,6.1809254,0.12282027,1
1774620094937,-1.5752761,-1.0154777,0.46535492,0.14700402,0.31072855,0.36215582,3.729245,0.24931926,1
1774620094958,-1.2248169,-1.084352,-0.76536846,0.089231625,0.3457184,0.40475652,3.2617848,0.29131132,1
1774620094979,-0.6970324,-1.4410734,-1.8784208,-0.09389471,0.26169947,0.39639625,6.0910115,0.23443282,1
1774620094995,-0.39908454,-1.6945267,-2.5218,-0.27608845,0.14933556,0.37156528,9.390164,0.2365867,1
1774620095015,-0.39966512,-1.827395,-2.6368332,-0.3184393,0.12004135,0.347567,10.451994,0.23661633,1
1774620095035,-0.48588592,-1.9452248,-2.444437,-0.23452029,0.14355665,0.3149753,9.995256,0.17481771,1
1774620095059,-0.48330393,-2.0391686,-2.4760923,-0.17288418,0.15013495,0.2945243,10.522824,0.13917401,1
1774620095075,-0.63712734,-1.9012461,-2.933909,-0.20877334,0.09261236,0.3078974,12.6284895,0.14696416,1
1774620095095,-0.57363796,-1.7421494,-3.3257942,-0.2559705,0.061303023,0.31722358,14.425053,0.16990975,1
1774620095115,-0.363176,-1.6513429,-3.344864,-0.23556948,0.09644277,0.27225804,14.046944,0.13891862,1
1774620095136,0.08931935,-1.6540174,-3.0911527,-0.14718722,0.19255245,0.16672224,12.298976,0.086536825,1
1774620095159,0.39671105,-1.5515809,-2.4591517,0.0058621746,0.2523233,0.050910987,8.61221,0.06629334,1
1774620095175,0.39421606,-1.0474935,-1.5508237,0.0484129,0.17448296,-0.025313936,3.657703,0.033428904,1
1774620095195,0.26707828,-0.32265806,-1.2691727,-0.053575613,-0.03770444,-0.07779039,1.7862383,0.010343315,1
1774620095215,0.41946375,0.3004403,-0.93644905,-0.14175804,-0.14365658,-0.17036945,1.143151,0.0697583,1
1774620095235,0.70299786,0.6159787,-0.28108406,-0.051443912,-0.049861792,-0.2701763,0.952644,0.078127906,1
1774620095256,0.68145055,1.187449,0.87194633,0.16006067,0.18289319,-0.30784744,2.6347003,0.15383938,1
1774620095274,0.4644795,1.5515962,1.9558983,0.267112,0.1134464,-0.35029823,6.44873,0.20692775,1
1774620095294,0.69134617,1.719306,3.0950136,0.1810446,-0.32416826,-0.41398278,13.0130825,0.30924395,1
1774620095314,1.265345,2.3015652,2.9061255,-0.008043836,-0.49220616,-0.46715868,15.343865,0.46056882,1
1774620095334,1.7037861,2.5198216,2.10961,-0.08561772,-0.25360566,-0.50661176,13.702843,0.32830173,1
1774620095354,1.5857186,2.2736554,2.283514,-0.11058193,0.061952528,-0.5317425,12.898449,0.2988166,1
1774620095376,0.88496375,1.687191,3.3080444,-0.088748656,-0.010392036,-0.47969908,14.572932,0.23809552,1
1774620095396,0.31599867,1.0220051,4.416193,-0.09114682,-0.2652301,-0.489808,20.64711,0.31856662,1
1774620095414,0.8745918,0.26009178,3.5637803,-0.11466213,-0.2854146,-0.5555909,13.533089,0.40329018,1
1774620095433,0.9386979,-0.13114882,2.0271673,-0.10422014,-0.13869372,-0.5627021,5.007761,0.34673145,1
1774620095453,0.42059797,-0.34448767,1.3220606,-0.1036539,-0.08430207,-0.5290113,2.0434186,0.29770392,1
1774620095474,0.078674585,-0.7772989,0.90631676,-0.13131604,-0.15489797,-0.5239485,1.4317935,0.3157593,1
1774620095493,-0.058811545,-1.2815161,0.3189869,-0.15952775,-0.26932696,-0.5027481,1.7474948,0.35074174,1
1774620095513,-0.3114437,-1.5511565,-0.51571274,-0.2046765,-0.34277067,-0.47471955,2.7690434,0.38474286,1
1774620095533,-0.30894107,-1.8418441,-1.6737056,-0.26499695,-0.34022263,-0.45821553,6.2891245,0.3959363,1
1774620095553,-0.30055934,-2.0384283,-2.1636276,-0.22271267,-0.34288725,-0.47045615,8.92681,0.38850158,1
1774620095575,-0.2285065,-2.207318,-1.8981757,-0.030243492,-0.38197395,-0.49437118,8.527539,0.3912216,1
1774620095593,0.046304315,-2.1527064,-1.5990205,0.18539126,-0.39251587,-0.52476454,7.1931553,0.46381643,1
1774620095613,0.43162084,-1.9383242,-2.2778115,0.19988017,-0.3780936,-0.5531595,9.131823,0.48889226,1
1774620095634,0.66451603,-1.5008297,-3.3177938,0.075292304,-0.31778982,-0.5903643,13.701828,0.4551893,1
1774620095653,0.5270109,-0.872036,-2.7934074,0.14407293,-0.270143,-0.5614198,8.841312,0.40892643,1
1774620095676,-0.08289772,-0.26116228,-1.1459823,0.36308843,-0.19431776,-0.4745197,1.3883531,0.39476156,1
1774620095693,-0.52656174,0.11595535,-0.6174474,0.47838342,-0.052343223,-0.33114624,0.67195415,0.34124833,1
1774620095713,-0.47940385,0.42168808,-1.1264987,0.37029958,-0.009109686,-0.23105627,1.6766483,0.19059177,1
1774620095733,-0.1550732,0.48023367,-0.9586406,0.19694908,-0.071062215,-0.20162882,1.1736639,0.08449297,1
1774620095752,-0.10609496,0.3722477,-0.16215181,0.1663392,-0.13727814,-0.18800592,0.17611769,0.081860244,1
1774620095779,-0.46498019,0.33659887,0.9441414,0.23247185,-0.21593453,-0.109033115,1.2209084,0.11255911,1
1774620095792,-0.46412295,0.7144923,0.97335196,0.17301741,-0.1917364,-0.052010145,1.6733234,0.069402926,1
1774620095813,0.5215805,1.0801802,-0.20976782,0.016404096,-0.045831546,-0.09266233,1.4828379,0.010955932,1
1774620095832,1.4298229,1.4754481,-0.3248806,-0.19436772,0.3357927,-0.13051665,4.326888,0.16757013,1
1774620095853,0.8668251,1.242578,-0.22878027,-0.57114565,0.6111817,-0.15441501,2.3477263,0.7235944,1
1774620095877,-0.4308477,1.2398539,1.0700502,-0.8949142,0.42782217,-0.02989376,2.8678749,0.9847969,1
1774620095892,-1.5624756,1.6030526,4.0869875,-0.91063553,-0.1134464,0.09003101,21.714573,0.8502327,1
1774620095912,-1.1155015,0.9789529,6.219487,-0.5499286,-0.47891635,0.017586524,40.884716,0.5320916,1
1774620095932,-0.022148967,0.095551014,5.990279,-0.047846667,-0.41151798,-0.13667859,35.893066,0.19031739,1
1774620095952,0.27694884,-0.28472137,3.6712236,0.2596677,-0.13949311,-0.24119851,13.635651,0.14506237,1
1774620095976,-0.103866726,-0.3061843,1.0311031,0.22123048,-0.009775843,-0.24059896,1.1677108,0.10692635,1
1774620095994,-0.8083036,-0.11250734,-0.8490081,-0.06708193,-0.086167306,-0.12407159,1.3868272,0.027318548,1
1774620096011,-1.3815166,-0.02464819,-1.5639014,-0.29895425,-0.31286025,0.043999616,4.3549833,0.18919113,1
1774620096032,-1.1537727,-0.2380948,-1.2347016,-0.34070557,-0.53330797,0.13787767,2.9123688,0.41950792,1
1774620096051,-0.18770657,-0.7300544,-1.4007316,-0.24752699,-0.5114081,0.093228556,2.530262,0.3314994,1
1774620096079,0.8488047,-1.1754355,-2.18365,-0.05006164,-0.29542363,-0.032808192,6.8704453,0.09085766,1
1774620096092,1.1417005,-1.2681613,-2.3602748,0.1914533,-0.16788802,-0.15036811,8.482611,0.08745132,1
1774620096111,0.8707945,-1.0579004,-2.2471504,0.3322454,-0.20082943,-0.22041443,6.927121,0.19930199,1
1774620096132,0.41066676,-0.82730246,-2.7166238,0.3145423,-0.2872632,-0.23012365,8.233122,0.2344139,1
1774620096151,0.005721271,-0.58220196,-3.23065,0.2362523,-0.33257848,-0.20817381,10.776092,0.20975992,1
1774620096173,0.092612326,-0.14412165,-3.0677595,0.250991,-0.2950739,-0.18432541,9.440496,0.18404093,1
1774620096191,0.5853701,-0.005300045,-2.4022913,0.29245922,-0.22051436,-0.22581029,6.1136894,0.18514927,1
1774620096211,0.8623705,-0.003417492,-1.9559131,0.35068128,-0.15599713,-0.29549024,4.56929,0.23462695,1
1774620096231,0.8298004,0.27335787,-1.3073568,0.42242628,-0.07352699,-0.35091442,2.472475,0.3069911,1
1774620096252,0.55932224,0.5775161,-0.4513998,0.4874931,-0.013073315,-0.36288857,0.85012794,0.36950856,1
1774620096276,0.12286484,0.9292488,0.41320562,0.46064702,-0.060237173,-0.31810623,1.049338,0.31701577,1
1774620096292,-0.30574492,1.1894741,1.3341699,0.40725458,-0.16683882,-0.27991882,3.288338,0.27204603,1
1774620096310,-0.15914997,1.0563459,2.5354218,0.45130417,-0.2859642,-0.33321133,7.569559,0.39648074,1
1774620096330,0.64517677,1.0086241,3.2432818,0.44962212,-0.106085375,-0.47360376,11.952453,0.4377147,1
1774620096353,0.5908047,1.3947945,2.2309003,0.26226568,0.2110716,-0.38007542,7.271418,0.25779182,1
1774620096377,-0.7699883,2.5093675,2.2824683,0.050861027,0.21740007,-0.086567,12.099468,0.057343483,1
1774620096390,-1.003228,1.8030462,3.829266,-0.13108288,-0.17624827,0.01620425,18.920721,0.048508752,1
1774620096411,0.23345813,-0.2550311,4.1460404,-0.23666865,-0.5463813,-0.15011829,17.309195,0.37708008,1
1774620096430,1.1652154,-1.3897004,2.899444,-0.21730015,-0.57401013,-0.29660603,11.69577,0.46468213,1
1774620096450,0.95691895,-1.0280242,1.4532981,-0.076841116,-0.40270808,-0.30997914,4.084603,0.26416543,1
1774620096469,0.66013527,-0.6308317,0.16003609,-0.046847433,-0.11582791,-0.26842764,0.85933876,0.08766418,1
1774620096491,0.56501985,-0.7636008,-1.3745584,-0.22161351,-0.02614663,-0.22947416,2.7917447,0.10245459,1
1774620096509,0.24048078,-1.3017559,-1.7356424,-0.45954785,-0.23345444,-0.24188131,4.7648544,0.32419178,1
1774620096530,0.29000688,-1.8381076,-1.3346653,-0.52618015,-0.45065466,-0.29960376,5.244075,0.5697176,1
1774620096550,0.31014425,-2.1486888,-1.2600493,-0.41125152,-0.44149503,-0.34100536,6.3007774,0.48033035,1
1774620096571,0.1918366,-2.1727548,-1.6947527,-0.19563343,-0.25125745,-0.36283863,7.6298513,0.23305461,1
1774620096593,0.15858603,-2.1505399,-1.9000096,0.010608537,-0.10272128,-0.38094142,8.260008,0.15578055,1
1774620096610,0.18561941,-2.1992152,-1.7274227,0.17205149,-0.11394601,-0.42250955,7.854991,0.22109973,1
1774620096629,0.10902923,-2.0558765,-1.6691098,0.24186467,-0.17523238,-0.42985395,7.0244436,0.2739793,1
1774620096651,-0.18787304,-1.6922545,-1.9345174,0.2134198,-0.20570903,-0.38478848,6.6413794,0.23592639,1
1774620096669,-0.4080514,-1.1983366,-1.903028,0.19420119,-0.24266405,-0.30125248,5.224032,0.187353,1
1774620096691,-0.7390064,-0.7300806,-1.393713,0.1750492,-0.19843128,-0.1942678,3.021584,0.10775717,1
1774620096709,-0.54927224,-0.14135742,-1.3238788,0.17828006,-0.044848967,-0.12597014,2.074337,0.049663685,1
1774620096729,-0.37228787,0.1108346,-0.5153103,0.20973928,0.077190846,-0.05980417,0.41642725,0.053525534,1
1774620096748,-0.70036143,0.33294392,0.35119438,0.14119181,-0.050461333,0.057522587,0.7246953,0.02579032,1
1774620096769,-1.1783319,0.70067835,0.91080284,9.326187E-4,-0.22982389,0.19548354,2.708978,0.0910337,1
1774620096794,-0.8669332,0.7035966,0.999485,-0.09237921,-0.21538495,0.15248315,2.2455916,0.0781757,1
1774620096809,0.118190765,0.44185305,1.5610967,-0.093928024,0.009575996,0.009459418,2.6462262,0.009003654,1
1774620096828,-0.113928914,0.8619127,1.9637561,-0.122356236,0.3665025,0.031325996,4.612211,0.15027644,1
1774620096848,-1.3945109,1.7152729,2.282157,-0.25731948,0.56461734,0.2426807,10.095062,0.44389996,1
1774620096869,-2.531227,2.119668,2.7338562,-0.52204996,0.522866,0.46995655,18.374073,0.7667842,1
1774620096892,-2.4586313,1.5780215,3.2405,-0.66550666,0.34595156,0.55201036,19.03586,0.86729705,1
1774620096910,-1.9244514,0.6140971,4.1544647,-0.5773076,0.23052335,0.51388955,21.340206,0.65050757,1
1774620096928,-1.5225266,0.02717781,3.9569325,-0.33019698,0.3225195,0.4485396,17.976141,0.41423666,1
1774620096948,-1.4913814,-0.20558739,2.8011951,-0.11989146,0.54549867,0.40505627,10.113179,0.47601333,1
1774620096969,-1.7173696,-0.38606453,1.0401678,-0.01582121,0.7210808,0.45485145,4.180353,0.72709763,1
1774620096995,-1.9633389,-0.6411867,-0.4066701,-0.014305704,0.8242184,0.5431005,4.4312,0.97449875,1
1774620097009,-1.3740189,-1.1424503,-1.6989627,-0.07127871,0.79988706,0.5636681,6.0795946,0.9626217,1
1774620097027,-0.43331593,-1.8651044,-2.4462018,-0.19161983,0.76781166,0.5147389,9.650281,0.891209,1
1774620097047,0.11454928,-2.1597688,-3.3128166,-0.28944486,0.7390337,0.50276476,15.652477,0.88272154,1
1774620097067,-0.0759213,-1.9095697,-3.2711973,-0.3028346,0.6071514,0.5758254,14.352953,0.7919165,1
1774620097087,-0.16496971,-1.7607806,-2.8246946,-0.27304077,0.39116693,0.6247046,11.106463,0.61781865,1
1774620097115,0.33279833,-1.8892667,-2.854259,-0.25647014,0.24721056,0.59084725,11.826878,0.47599047,1
1774620097127,0.86771154,-1.9386592,-3.1778593,-0.21978158,0.23083977,0.4649937,14.610113,0.31781006,1
1774620097147,1.3247477,-1.7347519,-3.0585074,-0.15264969,0.21823277,0.32744908,14.118788,0.17815037,1
1774620097167,1.1258595,-1.2569809,-2.4072156,-0.07189491,0.22869141,0.2460781,8.642247,0.118023075,1
1774620097187,0.94163835,-0.650969,-2.2587929,-0.09862442,0.29602316,0.20634188,6.4125886,0.13993347,1
1774620097212,0.6514186,-0.011682034,-2.247898,-0.15143396,0.33602583,0.21556814,5.4775286,0.18231523,1
1774620097226,0.4733712,0.7578168,-0.6514163,-0.15176703,0.20116252,0.21207082,1.2227098,0.108473614,1
1774620097246,0.4954186,1.1158528,1.0078449,-0.25447166,-0.048329633,0.16975325,2.5063186,0.09590775,1
1774620097266,0.4273736,1.7575879,1.957654,-0.3181562,-0.35885835,0.13652872,7.1041727,0.24864276,1
1774620097286,0.33714586,2.2179022,3.26328,-0.1264531,-0.46272874,0.05099426,15.681753,0.2327087,1
1774620097314,0.45784634,2.1230178,4.2797394,0.27590525,-0.3719483,-0.09561007,23.032997,0.22361054,1
1774620097328,0.37788332,2.0969863,4.739523,0.54583174,-0.36448735,-0.20412691,27.003225,0.47245112,1
1774620097346,0.026817322,2.6592503,3.747898,0.45052144,-0.4858277,-0.15826206,21.119072,0.46404502,1
1774620097367,-0.10200161,3.4439754,2.2487192,0.17723085,-0.47879976,-0.058655053,16.928108,0.2641004,1
1774620097387,0.761724,2.9533672,1.4006128,-0.05114414,-0.28674692,-0.16840428,11.2643175,0.11319952,1
1774620097413,1.0380249,1.4068327,1.7423487,-0.08884858,-0.057905626,-0.23383747,6.092453,0.065927096,1
1774620097426,-0.38464403,1.1666927,3.2503567,0.12347205,0.101955205,-0.12527066,12.073941,0.041332953,1
1774620097445,-0.7191116,0.83133745,3.7132616,0.20249483,0.109965734,-0.08022186,14.996555,0.059532166,1
1774620097466,-0.08458942,-0.13851404,2.2878294,0.073427066,0.019934723,-0.13046668,5.2605047,0.022810481,1
1774620097485,0.19164395,-0.81440735,1.0726013,-0.050811063,-0.066582315,-0.16897053,1.8504603,0.035566006,1
1774620097509,-0.036009163,-1.2049389,0.31707478,-0.093211904,-0.073044024,-0.16665563,1.5537108,0.041797988,1
1774620097525,-0.317592,-1.4201393,-0.2971964,-0.07963897,-0.05082772,-0.15809552,2.205986,0.03392002,1
1774620097545,-0.48487803,-1.842062,-0.7954216,0.015171708,-0.055457503,-0.15742937,4.2609944,0.02808972,1
1774620097565,-0.7051742,-2.3442233,-1.0881677,0.12267266,-0.123405434,-0.15513112,7.176762,0.05434315,1
1774620097585,-0.8187325,-2.6053522,-1.7079248,0.17969564,-0.31973833,-0.1620425,10.37519,0.16078089,1
1774620097612,-0.8325869,-2.7636304,-2.200746,0.28309974,-0.4700065,-0.18902183,13.174137,0.33678082,1
1774620097627,-0.7032697,-2.7021184,-2.8449535,0.43942994,-0.42793873,-0.20667496,15.889793,0.41894478,1
1774620097647,-0.6678249,-2.3393598,-3.5246782,0.54206795,-0.24479574,-0.19073717,18.341951,0.3901433,1
1774620097665,-0.61429924,-1.6821606,-4.2792654,0.4608635,-0.030543262,-0.15348239,21.51914,0.23688489,1
1774620097684,-0.6700129,-0.88761425,-4.650465,0.28822914,0.1311828,-0.041767992,22.863602,0.10202953,1
1774620097705,-0.8310826,-0.09675789,-3.676062,0.14753695,0.10588553,0.091929555,14.213493,0.041429937,1
1774620097726,-0.8757217,0.3055215,-2.0707679,0.018902183,-0.015921133,0.26481375,5.1483116,0.0707371,1
1774620097745,-0.7422915,0.6592064,-0.5599675,-0.07937251,-0.061902564,0.44089547,1.2991133,0.20452073,1
1774620097764,-0.6007401,0.89267826,0.52814674,-0.0153715545,0.08445195,0.5473139,1.4367021,0.30692095,1
1774620097784,-0.2814003,0.5151744,1.67452,0.081654094,0.28135106,0.60385394,3.1486082,0.45046538,1
1774620097804,0.014495552,0.39881706,2.1081047,0.026712863,0.40452334,0.65233344,4.6033707,0.5898916,1
1774620097825,0.18420482,0.36246777,2.4228797,-0.119774885,0.34656775,0.6064519,6.0356603,0.50223917,1
1774620097844,0.705625,0.35355663,3.3108668,-0.117176875,0.2881292,0.47593528,11.584747,0.32326326,1
1774620097865,0.7324277,-0.008755207,4.1427307,-0.061536178,0.3501317,0.36816788,17.698746,0.2619265,1
1774620097884,0.118736416,-0.1315856,3.307053,-0.36170617,0.5727111,0.41738015,10.968013,0.63303554,1
1774620097904,-0.6417897,0.28051186,1.933682,-0.7080408,0.6031878,0.51803637,4.229707,1.1335189,1
1774620097927,-1.0649192,-0.40363598,4.3060102,-0.6104822,0.27304077,0.46699214,19.8387,0.66532147,1
1774620097944,-0.53852224,-1.779602,6.788806,-0.071878254,-0.11276359,0.1991807,49.544876,0.057555065,1
1774620097963,0.29765353,-2.7297287,6.0179305,0.35907483,-0.055424195,-0.16170941,43.755505,0.15815651,1
1774620097983,0.7295331,-2.1036022,1.843143,0.40738782,0.30731452,-0.30849692,8.354537,0.3555774,1
1774620098003,-0.7864449,-0.90149975,-1.3329539,0.17876302,0.62555397,-0.121873274,3.2079635,0.43812707,1
1774620098026,-2.4270258,0.05571413,-2.3730702,-0.03245846,0.642058,0.21844926,11.525021,0.46101213,1
1774620098043,-2.3050652,0.2508912,-2.034649,-0.28331622,0.40980265,0.50108266,9.5160675,0.4992901,1
1774620098063,-1.504244,-0.554646,-2.1875448,-0.48292994,0.11396267,0.6203413,7.3557343,0.63103217,1
1774620098083,-0.15073912,-1.2348747,-2.5591073,-0.54166824,-0.010558575,0.6125639,8.096668,0.6687505,1
1774620098104,0.7225862,-1.5193048,-2.6782985,-0.44607484,0.046164624,0.612897,10.0037,0.57675666,1
1774620098128,1.0298564,-1.1923261,-2.5417676,-0.36561984,0.064583845,0.5922462,8.942829,0.4886045,1
1774620098143,1.5296227,-1.0287476,-2.3931046,-0.2766047,0.023132274,0.48161426,9.125016,0.30899757,1
1774620098163,1.7062882,-0.8388715,-1.7220993,-0.06636581,0.018602412,0.34818318,6.5807505,0.125982,1
1774620098182,1.4534348,-0.40269613,-1.0572047,0.20482637,0.12139031,0.28050172,3.3923187,0.13537067,1
1774620098203,0.97518873,0.031019688,-0.894609,0.36220577,0.18937156,0.27347377,1.7522805,0.24184251,1
1774620098226,0.6324687,0.20966005,-1.1340556,0.33327794,0.20277795,0.28338283,1.7300562,0.23249891,1
1774620098243,0.6260853,0.17075872,-1.2175303,0.30473316,0.12373851,0.26556316,1.9035213,0.17869732,1
1774620098263,0.6971908,-0.107441425,0.0061826706,0.3654866,-0.026429746,0.19921401,0.49765694,0.1739652,1
1774620098282,0.7991439,-0.38204145,0.7887888,0.4034575,-0.12981719,0.10118913,1.4067745,0.18986969,1
1774620098303,0.76652586,-0.34059668,0.9355674,0.43699846,-0.1102655,0.035705972,1.5788543,0.20440105,1
1774620098327,0.67290103,-0.23258162,1.3988519,0.57367706,-0.009759189,-0.02448124,2.4636765,0.32979995,1
1774620098342,0.5033195,-0.5082669,2.6041746,0.7809016,-0.034323696,-0.15201685,7.293391,0.6340946,1
1774620098362,0.44504288,-0.9171195,3.6651,0.85224694,-0.2702429,-0.35256317,14.47213,0.9236569,1
1774620098381,0.7596488,-0.45576572,2.9786687,0.65699655,-0.34854957,-0.46257886,9.657256,0.76711047,1
1774620098404,0.646852,0.52172613,0.89458656,0.14134169,-0.08030513,-0.38876876,1.4909008,0.17756754,1
1774620098425,0.28497508,0.7494068,-0.6722574,-0.42059436,0.25765255,-0.3358593,1.0947514,0.35608593,1
1774620098443,-0.6194136,-0.15158606,1.6461983,-0.56415105,0.17929594,-0.22879134,3.1166203,0.40275893,1
1774620098462,-1.6724484,-0.7025213,5.1375604,-0.31590793,-0.11617764,-0.11123143,29.685146,0.1256675,1
1774620098481,-1.2022889,-1.4343209,5.9592423,-0.032808192,-0.15936121,-0.16006067,39.015343,0.052091792,1
1774620098502,0.25201362,-2.1925304,3.4451137,0.01765314,0.034223773,-0.29998678,16.739508,0.091474965,1
1774620098522,0.63951284,-2.1083493,0.84702873,-0.13451359,0.27610508,-0.37113225,5.5715714,0.23206708,1
1774620098542,0.05732581,-1.7563744,-0.41017866,-0.3763283,0.33917344,-0.34183806,3.2563837,0.37351486,1
1774620098561,-0.87930137,-1.6074762,-0.08067703,-0.47403675,0.16430743,-0.2336876,3.3636596,0.30631766,1
1774620098583,-0.95676506,-1.2833228,0.61481,-0.44089547,-0.117426686,-0.17218472,2.940308,0.23782541,1
1774620098601,-0.5880866,-1.738132,0.18056011,-0.3482831,-0.2486095,-0.20679154,3.399551,0.22587055,1
1774620098622,-0.09696838,-1.9187806,-1.0244322,-0.19153656,-0.17068587,-0.26333153,4.740583,0.13516341,1
1774620098641,0.0489181,-1.8939581,-2.0163083,-0.009059724,0.010758422,-0.31835604,7.654969,0.10154839,1
1774620098661,-0.05607012,-1.7224648,-2.6099873,0.19624962,0.21828273,-0.31440908,9.782063,0.18501434,1
1774620098680,-0.39099532,-1.2910287,-2.8001556,0.32854822,0.28708002,-0.23901685,9.660504,0.24748793,1
1774620098701,-0.4745712,-0.8832426,-3.0663795,0.25122416,0.26476377,-0.11524502,10.408018,0.14649485,1
1774620098720,-0.44567162,-0.40276337,-4.03189,-0.0011158116,0.33667535,0.061136484,16.616978,0.117089204,1
1774620098745,-0.09172857,0.1044569,-4.292161,-0.18114452,0.3947142,0.19515045,18.44197,0.22669634,1
1774620098760,0.60445356,0.03589821,-2.7889152,-0.13121611,0.3994772,0.21376953,8.1447,0.22249712,1
1774620098780,1.2407846,-0.096441746,-1.4419928,0.051260717,0.49303886,0.18952143,3.6281905,0.28163335,1
1774620098800,1.5430939,0.20223808,-1.1225357,0.17538227,0.5623191,0.21082178,3.6821256,0.39140752,1
1774620098820,1.1703032,0.46344995,-0.44987583,0.144839,0.36397108,0.25050804,1.7867837,0.21620756,1
1774620098844,1.0841022,0.707973,0.16484547,0.0200513,0.077424005,0.2624822,1.7036772,0.07529344,1
1774620098860,1.5050715,0.8600941,0.40861988,0.031342648,-0.047063936,0.2507079,3.1719723,0.066051826,1
1774620098880,1.7279402,0.7335782,0.88978004,0.18730646,0.017719755,0.19541691,4.315623,0.073585466,1
1774620098900,1.5883986,0.5303855,0.9414482,0.3390402,0.21398602,0.18335949,3.6906438,0.19435897,1
1774620098919,0.80480874,0.85040283,1.0313053,0.36979994,0.22058097,0.21100497,2.4344926,0.22993106,1
1774620098942,0.17328814,1.119462,1.8949642,0.32979727,0.18349272,0.20336083,4.8741136,0.18379144,1
1774620098959,-0.05752039,1.0657401,2.0926828,0.07367688,0.26439738,0.2600507,5.518432,0.14296064,1
1774620098979,-0.938246,1.218821,1.6726236,-0.3485829,0.124354705,0.4725379,5.1635003,0.3602662,1
1774620098999,-1.694875,1.3800488,2.7811313,-0.55987096,-0.21535164,0.6090666,12.511827,0.73079395,1
1774620099019,-1.3222541,-0.097592354,4.44707,-0.41321668,-0.3638212,0.53277504,21.534311,0.5869631,1
1774620099042,-0.67649245,-1.4239469,4.845148,-0.16978656,-0.18557446,0.3898346,25.960728,0.21523638,1
1774620099059,-0.81043434,-1.7941871,3.6121702,-0.1098325,0.0011990812,0.27905282,16.923685,0.089935094,1
1774620099079,-1.1085756,-1.84178,2.3330345,-0.311478,0.049611982,0.18056163,10.064142,0.1320824,1
1774620099099,-1.4230676,-1.9014614,1.3051405,-0.48914185,0.13954307,0.12748565,7.344068,0.2749846,1
1774620099119,-2.0018027,-1.9327104,1.199811,-0.45175382,0.36347148,0.18026187,9.18213,0.36868736,1
1774620099142,-2.6835022,-1.8611393,1.4352512,-0.34375325,0.67896307,0.31702372,12.72497,0.67966115,1
1774620099159,-2.8224678,-1.9814324,0.90714455,-0.41251722,0.8954305,0.45348582,12.71531,1.1776156,1
1774620099179,-2.5859299,-2.0673537,0.8563967,-0.5837194,0.7149521,0.622956,11.694401,1.239959,1
1774620099198,-2.5113587,-2.1721344,1.8865509,-0.6331648,0.24862614,0.6757155,14.584166,0.91930413,1
1774620099218,-1.5633113,-3.0413926,2.7366104,-0.4421445,-0.026513016,0.55925477,19.183048,0.5089606,1
1774620099240,-0.578073,-3.3547378,1.9560022,-0.15131737,0.09750861,0.42447472,15.414379,0.21258366,1
1774620099260,-0.2617252,-2.8717384,0.579237,0.03527297,0.34353673,0.38981795,8.650897,0.2712197,1
1774620099278,-0.6632413,-2.1945689,-0.15740299,-8.326952E-5,0.36838436,0.4357994,5.280797,0.32562816,1
1774620099298,-0.7267713,-1.8429623,-0.4259243,-0.08440199,0.26534668,0.47465295,4.106118,0.30282798,1
1774620099318,-0.52418923,-1.8660984,0.037291527,-0.08423545,0.18096133,0.458482,3.7584882,0.25004837,1
1774620099339,-0.33555418,-1.7221341,0.4698553,0.035289623,0.1891384,0.44690755,3.2991064,0.23674504,1
1774620099359,-0.53558356,-1.4273481,0.8889103,0.17834666,0.24774349,0.4663593,3.114334,0.31067535,1
1774620099378,-0.5072641,-1.1882024,0.7565117,0.21686715,0.25072452,0.4777339,2.2414517,0.33812383,1
1774620099398,-0.35993898,-1.1978431,0.20580578,0.15253311,0.2629485,0.4964529,1.6067401,0.33887374,1
1774620099418,-0.2654639,-1.0813055,-0.13594055,0.08395234,0.2702096,0.5070115,1.2581725,0.33712187,1
1774620099437,-0.15011036,-1.2103174,0.24238014,0.0725111,0.29024425,0.46937364,1.5461495,0.3098112,1
1774620099461,-0.034753263,-1.1825793,0.6385164,0.1586451,0.3821738,0.41133478,1.8074048,0.34042138,1
1774620099481,0.042131424,-1.2485769,0.74910164,0.2441962,0.516804,0.37298086,2.1218724,0.4658329,1
1774620099497,-0.03099531,-1.0836234,0.44754505,0.21018894,0.54723066,0.36816788,1.3754969,0.47918838,1
1774620099517,-0.32665867,-0.96849704,0.30922222,0.10428675,0.4940048,0.42362538,1.1403108,0.43437493,1
1774620099537,-0.69874537,-0.69501066,0.44565678,0.016953675,0.43003714,0.4869435,1.1698949,0.42233336,1
1774620099558,-0.7091415,-0.7377312,0.85717773,0.031059533,0.38037518,0.51297355,1.7818825,0.40879184,1
1774620099577,-0.6378473,-0.84694505,1.1755905,0.10320425,0.42868817,0.5160546,2.5061781,0.460737,1
1774620099597,-0.35323715,-0.72330093,0.8950424,0.13892688,0.51059204,0.49925077,1.4490416,0.5292562,1
1774620099617,-0.061972022,-0.7315352,0.45557785,0.10696803,0.5516939,0.46885738,0.7465354,0.5356356,1
1774620099636,0.24376082,-0.7748525,0.1945982,-0.019368492,0.46699214,0.39981028,0.69768417,0.37830505,1
1774620099658,0.46822184,-0.802423,0.1754942,-0.12462117,0.28220043,0.3509644,0.89391255,0.21834353,1
1774620099676,0.5369208,-0.6192174,0.43829632,-0.09890754,0.16623928,0.28474846,0.8638178,0.11849989,1
1774620099697,1.0752537,-0.4346788,0.30635357,0.08833231,0.22974062,0.16785471,1.4389688,0.08875856,1
1774620099716,1.5578749,-0.14502859,0.06797218,0.26754498,0.27832004,0.09442764,2.452628,0.15795895,1
1774620099736,1.7718544,0.49426222,-0.6996479,0.090963624,0.16359131,0.09974024,3.8732703,0.044984613,1
1774620099759,1.9477884,1.1860394,-1.9361959,-0.23966634,0.0029477412,0.10858346,8.949424,0.06923901,1
1774620099778,2.0203166,1.3140726,-1.4191675,-0.27737078,-0.07582523,0.096192956,7.822502,0.0919371,1
1774620099796,2.1153393,1.0100975,0.7940159,-0.018119449,-0.16242553,0.032441806,6.1254187,0.027762838,1
1774620099816,2.272347,0.56027985,2.1196156,0.19614969,-0.3440197,-0.109183,9.970244,0.16874519,1
1774620099836,2.6494849,0.23539925,1.7144337,0.3008195,-0.42382523,-0.3126604,10.014465,0.3678767,1
1774620099858,2.8917537,0.18224335,1.110426,0.42575708,-0.3354929,-0.4787165,9.628497,0.52299404,1
1774620099876,2.7172265,0.45913124,1.1203156,0.5243648,-0.3352431,-0.55637366,8.849228,0.69689804,1
1774620099895,2.3071182,0.40919733,1.6326561,0.5976587,-0.51488876,-0.65248334,8.155803,1.0480409,1
1774620099916,2.1114042,0.068469524,2.3870478,0.7597678,-0.7081407,-0.7645974,10.160713,1.6633196,1
1774620099935,2.046921,-0.12285566,2.843625,0.9823972,-0.7928258,-0.8790097,12.2911825,2.3663352,1
1774620099958,2.0902898,-0.35269833,2.268816,1.0861677,-0.85376245,-0.9977188,9.641233,2.9041133,1
1774620099976,1.83642,-0.52864885,1.1233702,0.991307,-0.9869104,-1.09183,4.913869,3.1487746,1
1774620099996,1.1292301,-0.43643284,0.3058958,0.934384,-1.0395534,-1.1342142,1.5592066,3.2401867,1
1774620100015,0.46804094,-0.41932678,0.2746477,1.0132902,-0.92181027,-1.1676385,0.47032866,3.239871,1
1774620100036,0.1627035,-0.470325,0.20484066,1.0643344,-0.8529297,-1.2051265,0.2896377,3.3126268,1
1774620100060,-0.28065568,-0.38727808,-0.002696991,1.0009496,-0.97570235,-1.135713,0.2287592,3.2437391,1
1774620100078,-1.1325214,-0.028774261,0.0079956055,0.94595844,-1.0981418,-1.0018157,1.2834965,3.1043875,1
1774620100095,-1.0757562,0.06305504,-0.117332935,0.91719717,-1.1285352,-0.9742368,1.1749943,3.0639796,1
1774620100115,-0.48827448,-0.48934174,-0.492846,0.7983216,-1.1158949,-1.0280788,0.7207645,2.9394848,1
1774620100135,-0.5150662,-0.095924854,-1.1546578,0.6008229,-1.0130237,-0.9929058,1.6077296,2.3730674,1
1774620100155,-1.1077042,0.6172366,-1.3520927,0.48432887,-0.9386141,-0.9153153,3.4361444,1.9533728,1
1774620100180,-1.1430603,0.34265804,-0.50736475,0.47959915,-0.99462116,-0.89349866,1.6814204,2.0176263,1
1774620100194,-1.244122,-0.20040607,-0.17671394,0.45936465,-1.1920699,-0.85700995,1.61923,2.3665125,1
1774620100214,-1.7253592,0.0098257065,-1.1416855,0.3032676,-1.3505318,-0.7836495,4.2804065,2.530014,1
1774620100235,-1.8570348,0.2686367,-2.8697586,0.11306336,-1.3239521,-0.7351533,11.756259,2.3060827,1
1774620100254,-1.7258248,0.6271863,-3.7799923,0.040152565,-1.0504783,-0.67593205,17.660175,1.5620011,1
1774620100276,-1.6125431,1.1098857,-3.9156787,-0.0074609495,-0.7451623,-0.64260757,19.16468,0.968267,1
1774620100294,-1.5620747,1.5846815,-3.8781478,-0.14688744,-0.53194237,-0.5950274,19.991323,0.65859616,1
1774620100314,-1.7689686,1.9953136,-3.5409951,-0.3275823,-0.41321668,-0.4621292,19.649174,0.49162155,1
1774620100334,-2.1757398,2.2969627,-2.8822856,-0.34083882,-0.3388237,-0.30361733,18.317451,0.3231561,1
1774620100354,-2.5570102,2.149386,-1.4976182,-0.19561677,-0.31745672,-0.17689778,13.401022,0.17033753,1
1774620100376,-2.4141266,1.8342724,-0.7787657,-0.040918645,-0.31294352,-0.1166606,9.799038,0.11321767,1
1774620100394,-2.119687,1.470223,-1.1129303,0.02533059,-0.27420655,-0.09899081,7.893243,0.08563005,1
1774620100414,-1.8669741,1.0487757,-1.803371,0.049578674,-0.18282656,-0.07395999,7.8376694,0.041353673,1
1774620100433,-1.9216336,0.94277287,-2.1594715,0.058321975,-0.09959035,-0.028428216,9.244814,0.014127855,1
1774620100453,-1.7605766,0.8744669,-2.5628781,-0.03424043,-0.056140315,0.004929556,10.432667,0.0043484424,1
1774620100474,-1.5514868,0.962245,-3.063516,-0.19245252,-0.0712121,0.08680015,12.718157,0.0496434,1
1774620100494,-1.5735189,1.1050501,-3.0900192,-0.33154595,-0.06363457,0.18567438,13.245316,0.14844705,1
1774620100513,-1.4704391,1.0912929,-2.999434,-0.41718033,-0.034057237,0.30010337,12.349715,0.26526135,1
1774620100534,-1.2721158,1.0831532,-2.8861437,-0.5326585,-0.010858346,0.4030578,11.121325,0.4462986,1
1774620100553,-1.0632083,1.0286322,-3.0300932,-0.63281506,0.013006699,0.45874846,11.369961,0.6110742,1
1774620100578,-0.6839321,0.82356644,-2.6844382,-0.6157948,0.079872124,0.40752104,8.352234,0.5516561,1
1774620100593,-0.28340602,0.45756006,-2.066328,-0.56175286,0.17250115,0.32218644,4.5593915,0.44912702,1
1774620100613,-0.3557459,0.7994118,-1.9806037,-0.5407523,0.24746037,0.27612174,4.6884055,0.42989287,1
1774620100633,-0.57939464,1.2823172,-1.9155903,-0.5377712,0.30449998,0.2535224,5.6495214,0.44619173,1
1774620100653,-0.5641612,1.309814,-1.6492877,-0.51698714,0.37799367,0.20032983,4.7540407,0.45028698,1
1774620100677,-0.5392254,1.0590239,-1.2278943,-0.47342056,0.44354343,0.15323257,2.92002,0.44433802,1
1774620100693,-0.8856524,1.3003178,-0.77395105,-0.39822817,0.43335125,0.17233461,3.0742066,0.3760782,1
1774620100712,-1.3353323,1.6931896,-0.3899927,-0.3100624,0.40677163,0.25045806,4.802098,0.3243311,1
1774620100733,-1.3146214,1.7812109,-0.6066961,-0.17474942,0.47461963,0.28689682,5.269022,0.33811092,1
1774620100753,-0.8998986,1.2869883,-1.0196705,-0.09319525,0.575942,0.29435778,3.5058842,0.42704102,1
1774620100778,-0.8007214,1.0417128,-1.4065351,-0.09965697,0.6283352,0.3452521,3.7046614,0.5239356,1
1774620100794,-0.92752683,1.0011744,-1.5736232,-0.12823507,0.6765149,0.43343452,4.3389463,0.6619822,1
1774620100812,-0.78698087,0.8766408,-1.4169917,-0.093211904,0.75095785,0.4424443,3.3957033,0.7683831,1
1774620100833,-0.26216105,0.5535598,-1.0127015,-0.0240982,0.8966629,0.4401294,1.4007212,0.99829894,1
1774620100855,-0.3429047,0.9417391,-0.6323786,-0.13381413,0.93684876,0.5624357,1.4043587,1.2119257,1
1774620100879,-0.95851344,1.607986,-0.5654764,-0.41351646,0.8762286,0.81339335,3.8241305,1.6003811,1
1774620100892,-1.1697443,1.9352512,0.10460615,-0.5377379,0.77705455,1.0159714,5.124441,1.9251738,1
1774620100912,-0.9682445,1.3643656,1.9504457,-0.5431005,0.6893051,1.1277524,6.603229,2.0419252,1
1774620100932,-0.56681377,1.1241632,2.378728,-0.5604039,0.7321057,1.1902046,7.243367,2.2666183,1
1774620100952,-0.19034234,0.8583765,2.080185,-0.5813878,0.94494253,1.2327553,5.1002097,2.7506137,1
1774620100972,-0.07719439,0.5291071,2.1837602,-0.5449324,1.0631187,1.2885792,5.054722,3.087609,1
1774620100993,-0.33242428,0.021004677,3.494681,-0.44685757,0.8133767,1.3151089,12.323741,2.5907748,1
1774620101011,-0.3532065,-0.7342577,4.2095437,-0.36233902,0.3614397,1.2515743,18.384148,1.8283664,1
1774620101032,0.11909105,-1.3657174,2.9527893,-0.29002774,0.026862748,1.115745,10.598331,1.3297244,1
1774620101051,0.47948897,-1.3509564,0.84059477,-0.2038438,0.07242783,0.9104856,2.7615924,0.8757822,1
1774620101072,0.9312363,-1.4202638,-1.0701537,-0.14705399,0.4330515,0.7090567,4.029579,0.71191984,1
1774620101092,0.58557314,-0.89210844,-2.2083158,-0.21535164,0.6994307,0.6227561,6.0154123,0.9234048,1
1774620101112,-0.17470704,-0.4577322,-2.1784034,-0.34193796,0.66439086,0.599857,4.9854827,0.9181652,1
1774620101131,-0.6843576,-0.51427746,-1.4040475,-0.4151319,0.47107235,0.6024051,2.704176,0.7571355,1
1774620101151,-0.6733648,-0.5943575,-1.1167178,-0.40953618,0.3142925,0.6032877,2.0537395,0.6304557,1
1774620101171,-0.33714768,-0.7395029,-1.2755828,-0.29670596,0.2861474,0.56238574,2.2876446,0.48619246,1
1774620101193,0.13940354,-1.0404625,-1.3643923,-0.123305514,0.3128769,0.4643775,2.963562,0.32874268,1
1774620101210,0.5552602,-1.2788563,-1.3768744,0.028494831,0.27612174,0.33111292,3.8395705,0.18669094,1
1774620101231,0.6863064,-1.3401427,-1.5687404,0.07031278,0.14983518,0.22511083,4.7279453,0.07806936,1
1774620101251,0.37366766,-0.9178333,-1.9803395,0.047097243,0.04055226,0.21700038,4.90379,0.050951798,1
1774620101271,0.0868765,-0.372375,-2.4065123,-0.0033640887,-0.02559705,0.2224795,5.937512,0.050163656,1
1774620101296,0.3359938,-0.28317356,-2.514893,-0.05527431,-0.026479708,0.16379115,6.517766,0.030583965,1
1774620101310,0.6204522,-0.215168,-2.4094043,-0.076458074,0.030709801,0.09974024,6.2364874,0.016737044,1
1774620101330,0.834432,0.18887329,-1.9252095,-0.050311446,0.091929555,-9.825804E-4,4.4383817,0.01098325,1
1774620101351,1.0635173,0.30432987,-1.1940894,-0.0042467457,0.09894085,-0.10218836,2.6495352,0.020249788,1
1774620101371,0.6716524,0.7938919,-0.040251732,0.07565869,-0.041001912,-0.17268434,1.0830015,0.037225276,1
1774620101392,0.41993237,1.1080408,1.2292957,0.14813648,-0.23778446,-0.26985988,2.9152656,0.15131022,1
1774620101410,0.4182861,1.3413839,1.6510677,0.2507079,-0.2802852,-0.3825402,4.700299,0.28775126,1
1774620101430,0.33758706,1.7495432,1.6906242,0.3378078,-0.22720923,-0.44314376,6.033077,0.36211455,1
1774620101450,0.03234515,2.3923326,1.7633953,0.18579096,-0.34210452,-0.41341653,8.833864,0.32246703,1
1774620101472,-0.559778,3.343718,1.7570443,-0.1889219,-0.37439644,-0.2966893,14.581007,0.26388872,1
1774620101495,-0.6251218,4.1253357,1.5880461,-0.42317572,-0.08380245,-0.16705532,19.931063,0.21400802,1
1774620101510,-0.661292,3.5740519,3.5882044,-0.3267829,0.064683765,-0.07863974,26.086365,0.11715527,1
1774620101529,-0.93632925,2.1009498,6.619109,0.029943721,-0.20945616,-0.08227029,49.10331,0.05153691,1
1774620101549,-0.75630176,0.29301357,7.975358,0.40752104,-0.5635681,-0.32010472,64.26418,0.58614945,1
1774620101569,0.10977294,-1.0900006,5.76258,0.67165196,-0.5079108,-0.60348755,34.407482,1.073287,1
1774620101594,0.08744684,-0.9597368,2.7632012,0.929621,-0.16840428,-0.7177333,8.564023,1.4076962,1
1774620101609,-0.44632488,-0.80590725,1.1031346,1.0146224,0.14890257,-0.6718518,2.0655985,1.5030156,1
1774620101629,-0.69978833,-0.745378,-0.36775017,0.826017,0.12085739,-0.54861295,1.1805323,0.99788684,1
1774620101649,-0.50476813,-1.2119222,-0.7864475,0.4971357,-0.03434035,-0.48842573,2.342046,0.48688287,1
1774620101669,-0.12756635,-1.7704067,-1.1776342,0.283616,-0.049412135,-0.38495502,4.5374355,0.23106997,1
1774620101693,-0.5510935,-1.9309802,-0.94382477,0.30633193,0.043350115,-0.21461888,4.923194,0.14177975,1
1774620101712,-1.0841585,-2.1327815,-0.15874052,0.4235421,-0.0026812786,-0.026379785,5.7493553,0.18009101,1
1774620101728,-1.2694482,-2.5257897,-0.056293488,0.49523717,-0.15374885,0.07657465,7.994282,0.2747622,1
1774620101748,-0.96233666,-3.0695276,-0.95464563,0.47718433,-0.29006106,0.064800344,11.25944,0.31603938,1
1774620101768,-0.787893,-3.3565276,-2.308249,0.42425823,-0.2555375,0.045698315,17.215065,0.2473828,1
1774620101788,-1.1840091,-3.041494,-3.3595953,0.38440543,0.05642343,0.15786237,21.939442,0.17587167,1
1774620101810,-1.8426579,-2.2684002,-3.923712,0.36268875,0.4320356,0.3590582,23.936543,0.4471207,1
1774620101829,-2.0749876,-1.7844195,-3.6066854,0.32565045,0.6934686,0.6147123,20.497906,0.96481806,1
1774620101849,-2.003695,-1.5670638,-3.3507998,0.13995941,0.8519471,0.765197,17.698341,1.330929,1
1774620101868,-1.4716501,-1.5077386,-3.5389972,-0.06559973,0.76264894,0.9020088,16.963531,1.3995566,1
1774620101888,-1.2644823,-1.0208654,-3.0373483,-0.28633058,0.6679881,1.016621,11.866567,1.5617115,1
1774620101910,-1.1904904,-0.47318554,-2.6526737,-0.4448258,0.7952073,1.088749,8.67785,2.0155993,1
1774620101932,-1.7026113,0.15949297,-1.780787,-0.31790638,0.85887516,1.2430974,6.0955257,2.3840222,1
1774620101947,-1.9667813,0.3685484,0.11901665,-0.16150957,0.95210373,1.323619,4.0182214,2.684554,1
1774620101968,-1.5830299,0.7929115,0.020595074,-0.10716788,1.0203848,1.4075214,3.1351163,3.0337865,1
1774620101989,-1.4916039,1.3580985,0.023744106,-0.14753695,1.0824039,1.481648,4.069877,3.3886461,1
1774620102009,-1.0607479,1.5266852,0.6888118,-0.11899215,1.1031713,1.411535,3.9304156,3.2235773,1
1774620102027,-0.4864952,1.3459015,2.552318,0.06573296,1.0870004,1.3327454,8.562456,2.962101,1
1774620102048,-0.18451059,1.7707076,3.3726144,-0.025230667,0.91976184,1.3668526,14.543978,2.7148845,1
1774620102068,-0.1751534,1.6333318,1.8527112,-0.7587852,0.80776435,1.324968,6.13099,2.9837782,1
1774620102087,0.062666975,1.1675649,-0.7247176,-1.5316763,1.0444663,1.3088304,1.8923504,5.149979,1
1774620102112,-0.5980849,0.73507595,2.4554996,-1.2729079,1.2257774,1.239417,6.9275208,4.658979,1
1774620102127,-0.4849465,-1.7061262,8.6484375,-0.39348182,0.86277217,0.9145825,77.94151,1.7356648,1
1774620102147,0.09099716,-3.1053543,9.804671,0.060536943,0.36460394,0.54343355,105.78308,0.43192077,1
1774620102167,0.3615188,-1.8176165,4.3814282,-0.08856547,0.18480839,0.43002048,22.631338,0.2269156,1
1774620102187,-0.71279514,-0.31814957,-0.016641617,-0.33695847,0.3482165,0.587683,0.609573,0.58016706,1
1774620102213,-1.3597198,0.27088356,-1.5417066,-0.41553158,0.64618814,0.75710315,4.299075,1.1634307,1
1774620102227,-1.0973905,-0.2919755,-1.1153455,-0.37268108,0.72487783,0.8056493,2.5335112,1.3134098,1
1774620102247,-0.5359987,-1.1073022,-0.5684037,-0.36009073,0.5740601,0.7050431,1.8364955,0.9562961,1
1774620102266,-0.08283703,-1.5918207,-0.61169577,-0.27970234,0.24919237,0.55537444,2.9149268,0.448771,1
1774620102287,-0.07448416,-1.7684674,-0.76236534,-0.11804288,0.06771478,0.4962697,3.7142258,0.26480302,1
1774620102311,-0.235865,-1.6410365,-1.6860275,0.036305513,0.015205015,0.46565983,5.591322,0.21838836,1
1774620102326,-0.043024108,-1.45855,-2.850572,0.13622895,-0.03557274,0.4991675,10.25498,0.26899195,1
1774620102346,-0.099748835,-1.5615635,-3.1169405,0.12781872,-0.19869775,0.49119025,12.163748,0.29708627,1
1774620102367,-0.020004839,-1.4541087,-3.413484,0.07757389,-0.40124252,0.5001834,13.766706,0.4171967,1
1774620102387,0.0054519475,-0.88949776,-3.4534588,0.032525077,-0.51590466,0.44805667,12.717613,0.4679703,1
1774620102409,0.37391615,-0.532424,-3.9107776,-0.033790775,-0.28554785,0.3693836,15.717469,0.21912363,1
1774620102426,0.31431198,0.17582464,-4.0163093,-0.09975689,0.02554709,0.33845732,16.260445,0.12515745,1
1774620102446,0.21474177,0.82642937,-3.3058982,-0.21273698,0.17298411,0.27139205,11.658062,0.14883417,1
1774620102467,0.30754417,1.0363722,-1.7264876,-0.22542726,0.06933021,0.15579727,4.1494102,0.07989692,1
1774620102488,0.3115247,0.9329362,0.6051054,-0.17758058,-0.23974961,0.0058954824,1.3335701,0.089049496,1
1774620102511,0.057068408,1.2118306,1.4804335,-0.20569238,-0.35734284,-0.07287749,3.6634736,0.1753144,1
1774620102527,-0.21158522,2.0080986,1.4327984,-0.17185165,-0.31354305,-0.15188362,6.13014,0.15091087,1
1774620102545,-0.5009164,1.8831406,2.9232855,0.08590084,-0.28688017,-0.27470616,12.342733,0.16514266,1
1774620102566,-0.834512,1.5527487,4.984,0.43156928,-0.28075153,-0.33451033,27.947697,0.37697065,1
1774620102585,-1.3545135,2.3606381,4.754805,0.4582655,-0.24902584,-0.25916806,30.015491,0.33918923,1
1774620102608,-1.3523296,3.4460392,2.5307302,0.08558442,0.049112365,-0.19168645,20.108578,0.046480414,1
1774620102627,-0.5839839,3.6519532,1.2493644,-0.24581164,0.4314194,-0.115511484,15.23871,0.25988898,1
1774620102645,-1.8398528,2.531314,3.9575133,-0.14334016,0.32763228,0.04639778,25.454521,0.13004206,1
1774620102665,-2.3206022,0.6275258,7.096351,0.2610333,0.005012825,0.032874808,56.137184,0.069244266,1
1774620102685,-1.2021985,-1.238492,6.5062523,0.50399715,-0.024164816,-0.116577335,45.310463,0.26818734,1
1774620102705,-0.5654744,-1.0430307,2.4517736,0.4501717,0.2746229,-0.13058327,7.4188685,0.2951243,1
1774620102728,-1.0637677,-0.63396835,-0.23866987,0.24887596,0.4835961,-0.036438745,1.5904809,0.2971322,1
1774620102744,-1.7002746,-0.77314806,-1.1202631,-0.041068528,0.45781586,0.12528732,4.743681,0.22697888,1
1774620102765,-2.3370535,-0.98303986,-1.3491921,-0.2637479,0.31455895,0.3555942,8.248506,0.29495752,1
1774620102784,-2.780624,-1.4620852,-1.5384545,-0.37378025,0.1264864,0.53733826,12.236404,0.4444429,1
1774620102804,-2.3732908,-2.2983701,-1.9486675,-0.34480244,0.0015654671,0.56689894,14.712319,0.4402656,1
1774620102827,-1.5656765,-3.1164336,-2.4855018,-0.18129441,0.053259186,0.46507695,18.34122,0.25200078,1
1774620102844,-1.0612227,-3.3773875,-3.031129,0.07066252,0.22361198,0.346268,21.720682,0.17489703,1
1774620102864,-0.90335095,-3.1264226,-3.2038603,0.3074977,0.35705972,0.2956901,20.855282,0.30947912,1
1774620102884,-0.76098645,-2.6671202,-3.3774056,0.38475516,0.35561082,0.28311637,19.099499,0.3546505,1
1774620102904,-0.29532385,-2.1889422,-3.6317148,0.28907847,0.2735737,0.26109993,18.068037,0.22658211,1
1774620102926,0.12249464,-1.692697,-3.9063864,0.05007829,0.27818683,0.22812518,18.140083,0.13193685,1
1774620102944,0.57244956,-0.98509645,-3.916005,-0.08724981,0.4718884,0.21636753,16.633207,0.2771061,1
1774620102964,0.40692842,-0.28218794,-2.1406164,0.0033474348,0.57116234,0.26276532,4.8274593,0.39528322,1
1774620102984,-0.116570234,0.21187258,0.06287861,0.10605206,0.5016822,0.32425153,0.062432326,0.36807114,1
1774620103003,-0.20000699,0.5742879,1.0603914,0.13258174,0.33031353,0.35775918,1.4942393,0.25467658,1
1774620103030,-0.22514954,0.49730015,1.4743552,0.08596746,0.11472875,0.381058,2.471723,0.16575828,1
1774620103043,-0.36500928,0.65443945,1.576242,-0.05275957,-0.018302642,0.4513375,3.0460615,0.20682408,1
1774620103063,-0.25855607,1.281558,1.3986197,-0.16675554,0.083535984,0.49680263,3.665379,0.2815985,1
1774620103083,0.2465142,1.7004666,2.0170445,-0.14472243,0.24494563,0.43275172,7.0208244,0.268217,1
1774620103103,0.28918856,1.5123887,3.0918822,-0.26119983,0.2418147,0.37687787,11.930685,0.26873663,1
1774620103130,-0.7924056,1.8091164,2.560481,-0.7243782,0.34088877,0.54020274,10.456872,0.93274796,1
1774620103143,-2.275578,2.4176464,2.0718908,-1.087117,0.38667035,0.77605534,15.316002,1.9335991,1
1774620103163,-2.8560352,1.6405301,5.282338,-0.79417473,0.14280723,0.8122609,38.751373,1.3108752,1
1774620103183,-2.2224214,-0.20366192,9.096102,-0.11840926,-0.20369391,0.5775241,87.7197,0.38904607,1
1774620103203,-1.2175016,-1.6865621,7.7308073,0.30383384,-0.13774444,0.2204644,64.092186,0.15989308,1
1774620103228,-0.8388221,-1.3728466,2.6671915,0.33281162,0.30061963,0.104902945,9.702241,0.21214037,1
1774620103242,-1.9971321,-0.33646107,-0.53497696,0.18559112,0.62495446,0.27625498,4.387943,0.50132895,1
1774620103264,-3.1079023,0.14047623,-1.2965198,0.025613705,0.662459,0.5890486,11.359754,0.78648627,1
1774620103283,-3.2470083,-0.19208193,-1.1909595,-0.11637749,0.4264732,0.830397,11.998343,0.88498235,1
1774620103302,-2.175548,-1.0800362,-1.4801197,-0.19095367,0.08596746,0.88478863,8.090242,0.8267046,1
1774620103328,-1.0185778,-2.0778694,-2.2118049,-0.20714127,-0.08994774,0.81938875,10.247123,0.722396,1
1774620103342,-0.34598055,-2.4125953,-3.5405478,-0.21202086,-0.04792994,0.75823563,18.475796,0.6221714,1
1774620103362,-0.064049244,-2.3086677,-4.316581,-0.15211676,0.08346937,0.6732008,23.966919,0.48330593,1
1774620103382,0.2870565,-2.2979727,-3.9297724,-0.013972626,0.16026053,0.518919,20.80619,0.29515558,1
1774620103402,0.6626958,-2.314834,-3.5063019,0.09486064,0.19846459,0.3425042,18.091776,0.16569586,1
1774620103421,0.72469485,-1.6864207,-3.0846367,0.18524139,0.19636619,0.18172741,12.88418,0.1058989,1
1774620103447,0.7584586,-1.1262517,-2.6907601,0.20530933,0.28719658,0.087083265,9.083893,0.13221729,1
1774620103461,0.5445137,-0.33687353,-2.41396,0.21365294,0.35882503,0.07439299,6.2371817,0.1799373,1
1774620103481,0.2491517,0.3183732,-1.116262,0.24103196,0.26752833,0.07231125,1.4094788,0.13489673,1
1774620103501,0.2691543,0.48367405,0.15747452,0.26188266,-0.0074609495,0.02371516,0.33118284,0.0692006,1
1774620103521,0.54567206,0.59850264,0.9584675,0.29567343,-0.2524399,-0.07302737,1.5746233,0.15648167,1
1774620103544,0.7890358,0.76360846,1.2789545,0.36915046,-0.3855712,-0.18114452,2.8414001,0.31775054,1
1774620103562,0.7171495,1.1431551,1.6335602,0.4870601,-0.32505092,-0.29255915,4.489626,0.4284765,1
1774620103581,0.6522148,1.397141,2.2107668,0.71363646,-0.20859016,-0.42857158,7.264877,0.73646045,1
1774620103601,0.27200735,1.4774823,3.1964397,0.89701265,-0.2669288,-0.5331581,12.474169,1.1601403,1
1774620103621,-0.13368702,2.1445327,3.2477674,0.771259,-0.37622836,-0.5075111,15.164886,0.99395573,1
1774620103644,-0.54435384,3.1240292,1.6133857,0.26111656,-0.14322358,-0.36290523,12.658892,0.22039506,1
1774620103661,-0.63857543,3.6830173,0.57666636,-0.034573507,0.21072185,-0.22749233,14.304939,0.09735179,1
1774620103681,-1.1166494,2.5937438,3.663972,0.15301608,0.23017362,-0.13218205,21.399103,0.09386591,1
1774620103701,-1.5963407,1.0609527,6.2941465,0.4655266,-9.992343E-5,-0.10681815,43.290203,0.22812515,1
1774620103721,-0.9917606,-0.26498175,4.8341036,0.42061102,-0.09877431,-0.15666328,24.422361,0.2112134,1
1774620103741,-0.44563058,-0.5677123,1.2908106,0.17095234,-0.030160222,-0.1351631,2.1870759,0.048403405,1
1774620103762,-1.0598662,-0.3374982,-0.23082495,0.002448124,0.06724847,0.026030052,1.2905015,0.005205914,1
1774620103780,-1.4426377,-0.50489616,-0.259295,-0.09269563,0.005079441,0.1019219,2.4033573,0.019006353,1
1774620103800,-1.0890728,-1.5584521,-0.21100378,-0.09162978,-0.14801991,0.071511865,3.659375,0.03541986,1
1774620103820,-1.0766554,-2.2017126,-0.6054597,0.0037970904,-0.2473438,0.062368874,6.3733068,0.06508324,1
1774620103844,-1.2235463,-2.336016,-1.5892086,0.09492726,-0.28926167,0.09292879,9.47962,0.10131926,1
1774620103860,-1.2172341,-2.6511495,-2.771224,0.13293147,-0.21531834,0.1000067,16.189934,0.0740341,1
1774620103880,-0.9160119,-2.88803,-3.7417324,0.2090398,-0.05240984,0.08690008,23.180355,0.053996056,1
1774620103900,-0.38131094,-2.890444,-3.616221,0.3300804,0.006628254,0.018952144,21.577118,0.10935619,1
1774620103920,0.2581421,-2.694751,-3.2908907,0.3126604,-0.05624024,-0.039136678,18.158283,0.10245117,1
1774620103942,0.5084133,-1.7229056,-3.5055783,0.19485068,-0.09391137,-0.08010528,15.515966,0.05320299,1
1774620103960,0.4689328,-0.7876768,-3.1907582,0.20051302,0.04295042,-0.059770864,11.021271,0.045622766,1
1774620103980,0.3460294,-0.056966305,-2.1373258,0.36775154,0.26073354,-0.018752297,4.691143,0.20357482,1
1774620104003,0.24720109,0.34340334,-0.576324,0.6324487,0.32991385,0.064084224,0.51118356,0.51294124,1
1774620104021,-0.04039526,0.7261119,0.55795383,0.67439985,0.25472146,0.14760356,0.8401828,0.54148495,1
1774620104044,0.036768973,0.8442836,-0.012725353,0.49550363,0.18206048,0.17283422,0.71432865,0.30854154,1
1774620104061,0.074816406,0.9207711,-0.026138306,0.33056337,0.17521574,0.22424483,0.8541001,0.19025843,1
1774620104079,0.20516777,1.1783128,0.6787629,0.3355429,0.30361733,0.18389241,1.8912339,0.23858893,1
1774620104099,0.68585694,0.9795346,2.0338988,0.440246,0.33565944,0.08586753,5.5666323,0.31385705,1
1774620104120,0.613039,1.5847702,2.7824125,0.34113857,0.41817954,0.05429173,10.629133,0.29419726,1
1774620104145,-0.16071841,1.8013744,2.0331273,0.016370788,0.5226828,0.12250613,7.4043865,0.28847307,1
1774620104159,-1.1903911,2.0620027,1.5546532,-0.4331847,0.61577815,0.3343771,8.085833,0.67863977,1
1774620104179,-2.027738,1.8763938,2.606557,-0.7123208,0.33709168,0.45365238,14.426715,0.82683223,1
1774620104199,-1.6990235,0.455019,4.967481,-0.65573084,-0.10908308,0.3241516,27.769592,0.5469563,1
1774620104218,-0.5425796,-0.87138176,5.8404303,-0.3425708,-0.21889892,0.042550728,35.164326,0.16708206,1
1774620104238,0.22927952,-1.2034826,4.111348,-0.09124675,-0.01642075,-0.18302642,18.404123,0.042094283,1
1774620104261,-0.14624286,-0.7628727,1.3198562,-0.05718951,0.20862347,-0.20459323,2.345382,0.08865278,1
1774620104279,-1.0711855,-0.36907005,-0.79848146,-0.19706565,0.28717995,-0.045348585,1.9212236,0.12336369,1
1774620104298,-1.7973759,-0.17924929,-1.969718,-0.39329863,0.16913706,0.22629327,7.1424794,0.23449981,1
1774620104320,-1.9556149,-0.38619232,-2.1996002,-0.52637994,-0.16102661,0.46266213,8.811815,0.5170617,1
1774620104343,-1.4799945,-1.2218299,-2.0403824,-0.55322605,-0.47728425,0.564201,7.8464127,0.8521821,1
1774620104358,-0.7761083,-2.0006213,-2.5785213,-0.47595194,-0.5457651,0.57629174,11.253601,0.85650194,1
1774620104378,-0.50470686,-2.1645007,-3.30334,-0.32938093,-0.42975402,0.56486714,15.851847,0.6122552,1
1774620104398,-0.34391886,-1.8498735,-3.746668,-0.24116519,-0.26599616,0.5220333,17.577835,0.40143335,1
1774620104418,-0.008323193,-1.7282805,-4.4907274,-0.20246153,-0.024531202,0.37814355,23.153656,0.18458499,1
1774620104437,0.3227818,-1.6567583,-4.452634,-0.13469678,0.22068089,0.1891051,22.674984,0.10260402,1
1774620104460,0.11433983,-1.3411708,-3.8980107,-0.068114474,0.37811026,0.06708193,17.0063,0.15210694,1
1774620104482,-0.4973306,-0.71807003,-2.366004,0.10758422,0.31534168,0.02175,6.360937,0.1114878,1
1774620104498,-0.8802395,-0.19164944,-0.550776,0.22889127,0.19804823,0.0053292494,1.1149054,0.09164272,1
1774620104517,-0.5766525,0.3175168,-0.5180783,0.18019526,0.16372454,-0.00631183,0.7017502,0.059315894,1
1774620104537,-0.30636674,0.9171462,-0.6278825,0.11283021,0.23182236,-0.006578292,1.3292542,0.066515535,1
1774620104561,-0.20342565,1.1433458,0.9336858,0.2818507,0.25107425,-0.043949656,2.2203908,0.14440967,1
1774620104578,-0.2097227,1.0162039,3.4749093,0.5585886,0.3208208,-0.077057615,13.151649,0.42088512,1
1774620104597,-0.440074,1.0407963,4.4646897,0.72802544,0.08406891,-0.07907274,21.210377,0.5433411,1
1774620104617,-0.60299045,1.5612483,5.0924015,0.63030034,-0.32789874,-0.07692438,28.733646,0.51071346,1
1774620104639,-0.31225353,1.9743919,3.6344738,0.2405823,-0.42942095,-0.0014155819,17.205126,0.24228418,1
1774620104658,-0.012570322,2.361565,1.4142318,-0.27517247,-0.12791865,0.07252776,7.577199,0.09734335,1
1774620104677,0.05249542,1.8050237,1.5244164,-0.47373697,-0.012940084,0.09434437,5.584712,0.23349503,1
1774620104696,-0.6612019,0.78594875,4.360036,-0.4210107,-0.14305705,0.10055628,20.064816,0.2078269,1
1774620104717,-0.54034364,0.10075426,4.4489555,-0.42002812,-0.14099196,0.064933576,20.095327,0.20051873,1
1774620104736,-0.23389274,-0.3268447,2.2520075,-0.46417764,0.007394334,0.064334035,5.233071,0.21965443,1
1774620104763,-0.589463,-0.39353466,0.8116784,-0.5122741,0.06666558,0.12228962,1.161158,0.28182378,1
1774620104776,-0.7621356,-0.76272964,-0.2965455,-0.57502604,0.1755155,0.19153656,1.2505465,0.39814687,1
1774620104796,-1.151842,-1.325706,-1.1211329,-0.5351233,0.18036179,0.19508384,4.341175,0.356945,1
1774620104816,-0.35474384,-1.8580751,-1.8392711,-0.5262967,0.30451664,0.07712423,6.9612045,0.3756667,1
1774620104836,-0.27085406,-2.7064586,-2.629362,-0.50937635,0.349732,-0.018369257,14.311825,0.38211417,1
1774620104860,-0.8425852,-2.6191995,-2.509616,-0.49203962,0.22974062,-0.028611409,13.868328,0.29570237,1
1774620104876,-1.2036109,-2.4006586,-1.8982959,-0.27690446,0.13451359,0.013023353,10.815368,0.0949396,1
1774620104896,-0.99001527,-2.3827832,-1.602078,0.09194621,0.20361064,-0.01642075,9.22444,0.050181042,1
1774620104916,-0.102489054,-2.5567536,-2.2895308,0.30350077,0.29240927,-0.12940083,11.789444,0.1943605,1
1774620104936,-0.03896326,-2.3712358,-3.442451,0.32351875,0.35824215,-0.14442267,17.474747,0.25385973,1
1774620104964,-0.2818655,-1.2485843,-3.7349653,0.32873142,0.5727278,-0.094311066,15.588377,0.4449761,1
1774620104976,-0.23268068,-0.5875282,-3.0407195,0.4457584,0.7966728,0.037821017,9.645306,0.8348186,1
1774620104995,-0.6601215,-0.3043747,-1.1130753,0.39581335,0.8152086,0.2043101,1.7673409,0.8629759,1
1774620105016,-0.6322394,0.48959637,-0.49842024,0.13451359,0.55201036,0.30649847,0.887854,0.41675064,1
1774620105035,0.1761576,0.668705,0.23362541,-0.0953103,0.30325094,0.3011359,0.5327787,0.19172801,1
1774620105061,0.40504655,0.119653225,1.237896,-0.1352297,0.31679058,0.27427316,1.7107661,0.19386911,1
1774620105075,0.19122761,0.26778936,2.0661178,-0.14590485,0.4077209,0.24706067,4.377122,0.24856353,1
1774620105095,0.10435021,0.97953796,3.2408133,-0.10485298,0.50196534,0.14660433,11.473254,0.2844562,1
1774620105115,0.6602014,1.3316374,4.171522,-0.08631719,0.6262035,0.04666424,19.61072,0.40175903,1
1774620105135,-0.08222075,1.8076854,3.3927245,-0.5655666,0.776888,0.18232694,14.785067,0.95666367,1
1774620105155,-1.4132046,2.775279,2.0405307,-1.1077844,0.5609202,0.41240063,13.863087,1.7118919,1
1774620105176,-2.4661987,2.0244184,5.482209,-0.994438,-0.037054937,0.52414834,40.235023,1.2650114,1
1774620105195,-1.7935454,0.14931774,8.941899,-0.333228,-0.43523315,0.32215312,83.19666,0.40425143,1
1774620105216,0.27812815,-1.3062401,7.155403,0.08371918,-0.21575134,-0.097358726,52.983414,0.06303626,1
1774620105234,0.76739115,-1.1024003,1.9631929,0.13769448,0.20500956,-0.31032887,5.6583023,0.1572927,1
1774620105254,-0.9938941,-0.1492362,-0.4071536,0.06320157,0.31795636,-0.13527967,1.175871,0.12339127,1
1774620105276,-2.217868,0.21390247,-0.82916164,-0.13334781,0.098890886,0.16339146,5.652202,0.054257814,1
1774620105294,-1.9667271,-0.23834276,-1.5345731,-0.3100624,-0.28901187,0.35304612,6.2797375,0.30430812,1
1774620105315,-1.227107,-1.5083103,-1.8250818,-0.29091042,-0.4974688,0.42614013,7.1117153,0.51369953,1
1774620105334,-0.30124995,-2.3339417,-2.9102454,-0.17133537,-0.36107332,0.40958613,14.007564,0.32749057,1
1774620105354,0.26455018,-2.6835544,-3.752204,0.003297473,-0.19679919,0.35889164,21.350487,0.167544,1
1774620105382,0.41176003,-2.681033,-3.6070614,0.20277795,-0.09033078,0.3458683,20.368376,0.16890343,1
1774620105394,0.17627771,-2.4216707,-3.5461302,0.39466423,-0.016737174,0.37902623,18.470602,0.29970086,1
1774620105415,0.16170108,-2.0792105,-3.7736025,0.4062054,-0.059704248,0.28877872,18.58934,0.25196058,1
1774620105434,0.989548,-1.8104606,-4.849127,0.28051838,-0.015787901,0.13809417,27.771004,0.098009825,1
1774620105453,1.077225,-1.2883844,-5.052622,0.19480072,0.31041214,0.098407924,28.349337,0.14398713,1
1774620105478,0.54675704,-0.062814236,-4.1303744,0.2027946,0.4416116,0.073510334,17.362883,0.24155022,1
1774620105495,0.6114607,0.09917927,-1.5989552,0.16962002,0.29255915,-0.044749044,2.9403782,0.116364285,1
1774620105514,0.58027774,0.14953184,-0.31967783,0.1398595,0.29002774,-0.13659532,0.46127594,0.12233505,1
1774620105533,0.38201007,0.9548154,0.5086403,0.19848123,0.48018205,-0.204893,1.316319,0.31195074,1
1774620105554,0.099620745,1.4526238,2.7850208,0.2673951,0.3508478,-0.2271093,9.876381,0.24617296,1
1774620105576,-1.0064211,1.7873826,5.110073,0.29968703,-0.14277393,-0.1354462,30.320465,0.12854238,1
1774620105593,-1.565187,2.0567245,5.8483243,0.36723524,-0.32191998,-0.021400267,40.88282,0.23895216,1
1774620105613,-0.40131792,2.6433496,3.9435844,0.11652737,0.120690845,0.030210184,22.70021,0.029057562,1
1774620105635,1.1594913,3.0625234,1.8596258,-0.20652507,0.54496574,-0.08205379,14.181678,0.34637308,1
1774620105653,1.2323339,1.9112196,4.43494,-0.12267266,0.5358394,-0.09281221,24.8401,0.31078652,1
1774620105676,0.11210415,0.6863003,7.0496545,0.23230532,0.41951185,-0.09306202,50.181202,0.2386165,1
1774620105693,0.63840145,-0.56562185,5.6915836,0.34328693,0.5161045,-0.19451761,33.12161,0.4220469,1
1774620105712,1.3419578,-0.7269902,2.2141118,0.14778675,0.5553411,-0.28373256,7.231657,0.41074884,1
1774620105735,0.8727834,-0.54430676,0.63204336,-0.14793664,0.4336677,-0.23934992,1.4574995,0.2672413,1
1774620105753,-0.04112786,-0.7082486,0.5054321,-0.35342917,0.14127508,-0.15261638,0.7587693,0.16816258,1
1774620105774,-0.047736406,-0.84594774,0.5515938,-0.39248258,-0.14385644,-0.13622895,1.0221621,0.19329557,1
1774620105792,0.18186623,-1.5749707,-0.1254878,-0.24924234,-0.15223335,-0.13408059,2.5293555,0.10327434,1
1774620105812,0.15111887,-2.1022959,-1.316472,0.02030111,0.07196152,-0.1373281,6.1755834,0.024449604,1
1774620105832,0.104465365,-2.777244,-2.6326003,0.22406164,0.41221744,-0.22296248,14.654582,0.2698391,1
1774620105853,-0.021118462,-3.4619083,-3.6827588,0.31084514,0.39118358,-0.1740333,25.547968,0.27993688,1
1774620105876,-0.61062217,-2.6688807,-3.2195683,0.46449405,0.066465735,-0.15579727,17.861404,0.24444519,1
1774620105892,-0.09862983,-3.1010122,-2.8761988,0.61226416,-0.098890886,-0.1930021,17.898523,0.4218966,1
1774620105914,0.2713303,-2.7054565,-3.6023192,0.59759206,-0.13886026,-0.14622128,20.36982,0.39777908,1
1774620105932,0.2598399,-2.428134,-5.0363107,0.41857925,0.096409455,-0.07024617,31.327778,0.18943788,1
1774620105952,0.48292488,-1.8250961,-5.9911633,0.029560681,0.3956968,-0.010441998,39.45823,0.15755881,1
1774620105972,0.6135174,-1.1904593,-5.416424,-0.37201494,0.479366,0.07629154,31.131243,0.37400728,1
1774620105993,-0.1328193,-0.8089137,-3.24198,-0.5344238,0.5565069,0.25623697,11.182418,0.6609661,1
1774620106013,-0.8694837,-0.23546362,-1.0937371,-0.43743145,0.6280854,0.40207523,2.007706,0.74750197,1
1774620106032,-0.8833226,1.100728,1.1426172,-0.32047108,0.61815965,0.47098908,3.2974353,0.7066538,1
1774620106051,-0.24154294,2.2795181,2.2080102,-0.2581022,0.7674952,0.45615044,10.129854,0.8637389,1
1774620106082,0.09362519,2.6201735,3.371903,-0.14543855,0.73520327,0.38452202,18.243803,0.7095334,1
1774620106092,-0.10263753,2.1493711,4.7396846,-0.13383079,0.6107653,0.28651378,27.09494,0.47303507,1
1774620106111,-0.5119982,2.4751382,4.0911527,-0.5496455,0.7028947,0.43996286,23.12598,0.9897384,1
1774620106132,-1.8061656,4.240451,2.623065,-1.0766417,0.99848485,0.8715821,28.124128,2.9157848,1
1774620106154,-2.7648578,4.7926273,4.9440374,-1.0916301,0.8777441,1.1871903,55.05722,3.371512,1
1774620106178,-2.1928275,2.1332436,9.389804,-0.5937783,0.21999808,1.0497622,97.52764,1.5029726,1
1774620106192,-0.10795474,-0.64656496,9.960331,-0.15656336,-0.334527,0.61392957,99.63789,0.5133299,1
1774620106211,1.3930836,-1.6337271,5.6535625,0.0051460564,-0.4208775,0.22249617,36.572514,0.22666888,1
1774620106232,1.1775663,-1.2222528,1.3454218,-0.013856049,-0.2602339,0.07072914,4.690724,0.072916284,1
1774620106251,0.3917203,-0.7136636,-1.1095986,-0.13016692,-0.15942784,0.11089835,1.8939697,0.054659106,1
1774620106271,0.029620409,-0.66946125,-2.424807,-0.22252947,-0.16690543,0.20794065,6.328745,0.12061609,1
1774620106295,0.052859426,-1.0820603,-2.6820512,-0.15563074,-0.29462424,0.22534399,8.367047,0.16180429,1
1774620106310,0.6825351,-1.7907741,-2.7233758,0.0014322358,-0.30939624,0.17160183,11.089502,0.12517527,1
1774620106330,1.0415112,-2.0444613,-3.6407695,0.14996842,-0.18344276,0.1397096,18.51977,0.07566054,1
1774620106350,1.1650934,-2.0436995,-4.367177,0.28752968,-0.052959416,0.14560509,24.606386,0.10667886,1
1774620106370,1.0308498,-1.9434814,-4.0657425,0.49908423,-0.108316995,0.105252676,21.370033,0.27189577,1
1774620106391,1.1797196,-2.0528326,-3.55685,0.5115247,-0.24577832,0.04303369,18.257042,0.32391638,1
1774620106409,1.4333513,-1.7131519,-4.7361803,0.32911447,-0.25963438,-0.03369085,27.42079,0.1768614,1
1774620106430,1.6197206,-1.1458912,-5.3438087,0.10921631,-0.08325287,-0.07570865,32.49285,0.024591044,1
1774620106450,1.3480843,-0.37961435,-4.601779,0.06931355,0.22297913,-0.062285606,23.13781,0.058403555,1
1774620106470,0.9507003,0.31528568,-2.5241365,0.13807753,0.4104688,-0.009142994,7.374501,0.18763363,1
1774620106496,0.41905123,0.91136694,-0.40363693,0.186174,0.2250109,0.030459993,1.1691164,0.086218484,1
1774620106510,0.3067596,1.1732807,1.0359783,0.17173506,-0.2040603,0.0025147395,2.54394,0.071139865,1
1774620106530,0.5532601,1.3447266,1.8549604,0.26559648,-0.3951472,-0.062069103,5.5552645,0.23053537,1
1774620106549,0.752839,1.386908,2.037302,0.38234034,-0.28391576,-0.17083575,6.64088,0.25597715,1
1774620106570,0.22811759,1.5394659,2.236724,0.45222014,-0.33126283,-0.22675957,7.4249268,0.36565804,1
1774620106598,-0.73517,2.1788673,3.3704681,0.42667305,-0.6536824,-0.20862347,16.647993,0.6528743,1
1774620106611,-0.7242948,2.8994231,3.2091026,0.07972224,-0.81700724,-0.19085374,19.229597,0.71028167,1
1774620106629,0.6546008,3.2737064,1.0269523,-0.3880693,-0.36507025,-0.29500726,12.200287,0.37090334,1
1774620106648,0.6525322,2.9567342,1.3247547,-0.39661273,0.18838897,-0.22690946,10.923051,0.24427998,1
1774620106669,-1.075496,2.3124218,5.46539,0.065616384,0.32005474,-0.14450593,36.374477,0.12762251,1
1774620106691,-0.61511713,0.62478495,7.6120815,0.364071,0.024681088,-0.33167917,58.712513,0.24316794,1
1774620106712,0.55618834,-0.78967094,5.442986,0.3237519,-0.22484437,-0.5208176,30.559023,0.42662126,1
1774620106728,0.6036707,-0.72755384,2.1838593,0.16024387,-0.23698507,-0.57892305,5.662995,0.4169919,1
1774620106748,0.27677828,-0.8267646,-0.18489742,-0.008660031,-0.10461983,-0.5328417,0.794333,0.29494056,1
1774620106768,-0.37569642,-0.9634843,-1.4647851,-0.09201282,0.10223832,-0.37897626,3.215045,0.16254205,1
1774620106791,-0.89871573,-1.1459517,-1.7234612,-0.07019621,0.18370922,-0.22895788,5.0912137,0.09109829,1
1774620106808,-0.7636198,-1.9725289,-1.5265908,-0.05978752,-0.013073315,-0.17533231,6.8044653,0.034486875,1
1774620106828,-0.41104913,-2.6253674,-1.7480578,-0.032625,-0.3151252,-0.19163649,10.117222,0.13709283,1
1774620106848,-0.15827656,-3.2282724,-2.3090858,0.11840926,-0.52393186,-0.26677892,15.778671,0.35969633,1
1774620106871,0.099672794,-3.4057446,-2.9993048,0.31557485,-0.47198832,-0.32172012,20.60486,0.42586428,1
1774620106896,0.01399374,-3.0947418,-4.2660074,0.44415963,-0.19898085,-0.27010968,27.776443,0.3098304,1
1774620106915,-0.09333527,-2.3944707,-4.9320807,0.4600641,-0.014538859,-0.16149291,30.067621,0.23795033,1
1774620106928,0.22255075,-1.8769088,-4.8783484,0.28959474,-0.07357695,-0.09271229,27.370598,0.097874254,1
1774620106948,0.6861565,-1.3385148,-4.4196525,0.05975421,-0.22299579,-0.07957236,21.79576,0.059629448,1
1774620106968,0.94408715,-0.7551279,-3.428855,-0.052359875,-0.17396669,-0.04363323,13.218565,0.034909826,1
1774620106988,0.96701336,0.27333593,-2.4405189,0.06395099,0.23763457,0.013089969,6.9659595,0.060731266,1
1774620107012,0.9909004,0.71109056,-0.96934223,0.2822837,0.64923584,0.05194353,2.4271576,0.5038894,1
1774620107028,0.32992285,0.76450205,0.881052,0.2951405,0.71906567,0.13722818,1.4695652,0.6229949,1
1774620107047,-0.53856623,1.6172547,1.6429629,0.047247127,0.514589,0.3339774,5.6048937,0.37857506,1
1774620107068,-1.1801047,2.3146038,3.2301435,-0.027395673,0.025946783,0.47558555,17.183865,0.22760537,1
1774620107090,-0.8537835,2.0125837,6.350573,0.2936916,-0.453669,0.40505627,45.109215,0.4561409,1
1774620107108,-0.009576082,1.2687116,6.8826394,0.4977852,-0.5847353,0.23893358,48.980446,0.64679474,1
1774620107127,0.17916232,1.2331686,3.498786,0.17238458,-0.26899388,0.25873506,13.794308,0.16901797,1
1774620107147,-0.682158,2.5711875,-0.015749931,-0.34798333,0.27250785,0.5159213,7.076593,0.4615277,1
1774620107167,-1.5683966,2.78654,0.8833966,-0.59810835,0.4256738,0.6885224,11.005063,1.0129949,1
1774620107188,-1.5667841,1.0036931,3.713294,-0.6569466,0.1697366,0.61875916,17.250765,0.84325224,1
1774620107217,-0.59450495,-0.55779886,4.5313606,-0.5639345,-0.1081338,0.3238352,21.197805,0.43458426,1
1774620107227,0.5466767,-1.250227,3.698351,-0.38658708,-0.14553848,0.0018985452,15.539722,0.17063463,1
1774620107246,0.6488674,-1.0582795,1.843255,-0.23257178,-0.02371516,-0.12097397,4.938574,0.06928674,1
1774620107267,-0.057038784,-0.5301013,-0.27650166,-0.19543357,0.06756489,-0.05582389,0.36071396,0.0458756,1
1774620107286,-0.33924854,-0.5470691,-1.8905907,-0.25946784,0.0025147395,0.052826185,3.9887073,0.07012049,1
1774620107312,0.025432885,-1.0324168,-2.972887,-0.3248344,-0.10453656,0.12352201,9.904589,0.13170297,1
1774620107326,0.4766981,-1.5841646,-3.5195146,-0.33222875,-0.19861446,0.17696439,15.123801,0.18114005,1
1774620107346,0.69809663,-2.044159,-3.8659377,-0.27297416,-0.21103828,0.17633155,19.611399,0.15014488,1
1774620107366,0.87278324,-2.2661035,-4.0162687,-0.10481968,-0.11259705,0.1537655,22.027391,0.04730909,1
1774620107386,0.9318452,-2.4350367,-3.5974026,0.1093995,-0.109599344,0.046314508,19.739044,0.0261253,1
1774620107407,1.1109823,-2.633612,-3.441934,0.18372588,-0.131799,-0.09984016,20.017105,0.061094232,1
1774620107427,1.0613613,-2.2894828,-4.0912447,0.09211275,-0.091812976,-0.1932186,23.106503,0.05424781,1
1774620107446,0.49240446,-1.4268756,-4.1502542,-0.011241386,0.08483499,-0.22073086,19.503048,0.056045454,1
1774620107466,0.10131827,-0.55212736,-2.9656944,0.061652757,0.31584132,-0.21933192,9.110454,0.15166329,1
1774620107486,-0.35244495,0.10539293,-0.7690973,0.2680113,0.43415064,-0.20637518,0.72683585,0.30290753,1
1774620107512,-0.88457406,0.56430006,1.077385,0.49260587,0.31022894,-0.17788036,2.2616642,0.37054396,1
1774620107525,-1.218991,0.90379,2.4450078,0.6036541,-0.09932389,-0.16568969,8.280838,0.40171656,1
1774620107545,-1.0800118,1.2254472,2.5431786,0.5698134,-0.36690217,-0.16787136,9.135903,0.4874853,1
1774620107567,-0.7702835,1.7809501,1.8815527,0.56140316,-0.391067,-0.1915199,7.305361,0.5047868,1
1774620107585,-0.52491826,2.467122,2.0267048,0.48466194,-0.27179173,-0.17862979,10.469763,0.34067655,1
1774620107612,-0.11443448,3.528901,1.7654023,0.14988515,0.11123143,-0.09647607,15.582884,0.04414562,1
1774620107625,0.5210831,4.250887,0.570169,-0.35860854,0.86615294,0.022682618,18.66666,0.8793355,1
1774620107645,-0.34695017,4.153047,2.0555263,-0.5442163,1.2546053,0.2809014,21.593365,1.9491115,1
1774620107665,-1.7410759,3.2433305,6.668129,-0.40275803,0.84988207,0.436732,58.01448,1.0752484,1
1774620107684,-1.0496899,1.2737837,9.104488,-0.2748727,0.053342458,0.2872965,85.61608,0.1609397,1
1774620107713,0.3878562,-0.34516668,7.1868057,-0.29419124,-0.36741844,0.0942611,51.91975,0.23042996,1
1774620107724,0.87327325,-0.50923395,3.433608,-0.32525077,-0.4032077,0.0302768,12.81159,0.26928118,1
1774620107745,0.43467814,-0.5437708,1.0639453,-0.32536733,-0.28638056,0.030476646,1.6166114,0.18880653,1
1774620107764,0.37255132,-1.0834589,-0.39713144,-0.25965104,-0.16563974,0.009109686,1.470391,0.09493817,1
1774620107784,0.5319854,-1.8793387,-1.0274858,-0.13194889,-0.13351436,-0.06924693,4.8706493,0.04003173,1
1774620107811,0.8721413,-2.5161345,-1.5605073,0.00524598,-0.2138861,-0.15218338,9.526747,0.06893456,1
1774620107827,0.92307293,-2.9935014,-2.3450046,0.11832599,-0.292326,-0.24900919,15.3121605,0.16146111,1
1774620107844,1.1129466,-3.1464508,-3.2669072,0.22226301,-0.2902942,-0.3090465,21.811485,0.22918132,1
1774620107866,1.0354098,-3.0570104,-3.9885855,0.2847984,-0.1906539,-0.32929766,26.326202,0.225896,1
1774620107884,1.0709385,-2.802736,-4.256138,0.41080186,-0.112197354,-0.35426188,27.11695,0.30684787,1
1774620107903,1.3221519,-2.7572265,-3.8592756,0.5168206,0.01292343,-0.42169353,24.244392,0.44509602,1
1774620107927,1.4938247,-2.3079388,-4.056706,0.50686157,0.20759092,-0.42925438,24.014957,0.48426196,1
1774620107947,0.9249746,-1.1568274,-3.7293942,0.5139395,0.37902623,-0.3141093,16.10221,0.50645936,1
1774620107964,0.5335244,-0.14753723,-2.1732817,0.5673486,0.4844288,-0.20176205,5.0295687,0.59726363,1
1774620107983,0.78736323,0.12380886,-1.0790687,0.612947,0.6225729,-0.103953674,1.7996587,0.7741074,1
1774620108003,0.5608493,0.47747564,-0.09781504,0.58655053,0.6410088,0.045565084,0.55210274,0.75701,1
1774620108025,-0.12682569,0.7867398,0.885304,0.36327162,0.43490008,0.2644973,1.4188074,0.39106318,1
1774620108043,-0.4884143,1.3384433,1.3765163,0.082003824,0.18407561,0.45088783,3.924776,0.24390829,1
1774620108063,-0.15802515,1.4053268,2.292067,0.006178599,0.04849617,0.51438916,7.253487,0.26698625,1
1774620108083,0.2717365,1.317069,4.1195493,0.22612672,-0.084984876,0.4249077,18.779198,0.23890229,1
1774620108103,0.6370326,0.8402133,4.974883,0.16385777,-0.16354135,0.33006373,25.86123,0.16253722,1
1774620108127,0.892297,1.6666827,1.9899158,-0.5111916,0.051510528,0.39433116,7.5337906,0.41946727,1
1774620108144,0.14200479,2.5295906,-0.55709314,-1.1708195,0.3009194,0.57988894,6.7293468,1.797642,1
1774620108164,-0.92207766,1.9732351,2.4732914,-1.158912,0.19674923,0.63716173,10.861054,1.7877623,1
1774620108182,-0.69238794,-0.05233383,6.72038,-0.6376281,-0.37221476,0.34655112,45.645645,0.6652111,1
1774620108203,0.8746415,-1.9751987,7.8973684,-0.22730915,-0.8962632,-0.21658403,67.034836,0.9018658,1
1774620108227,1.6056483,-2.1462333,3.8624735,-0.011624426,-0.8557942,-0.59194636,22.103125,1.0829194,1
1774620108242,0.635875,-1.0349026,0.102027416,0.16094333,-0.4174468,-0.6658065,1.48577,0.64346284,1
1774620108262,-0.91195345,-0.048586845,-2.0940523,0.22029786,0.16810451,-0.4205111,5.2190747,0.25361985,1
1774620108282,-1.6793606,0.63868666,-3.2735105,0.10262136,0.3323953,-0.12508748,13.944044,0.13666464,1
1774620108304,-1.1549512,-0.052560806,-2.9346886,-0.116810486,-0.07922263,0.054408308,9.949072,0.02288118,1
1774620108327,-0.45546675,-1.1244707,-2.432302,-0.24511217,-0.60861695,0.1219732,7.387977,0.44537202,1
1774620108342,0.41167542,-2.0321667,-2.5421438,-0.18519142,-0.8636382,0.09567668,10.761673,0.7893209,1
1774620108362,1.1131426,-2.5920503,-3.1873317,0.01117477,-0.73645234,0.0057122894,18.116894,0.5425195,1
1774620108383,1.5807729,-2.6872668,-3.7205167,0.21257044,-0.48332962,-0.12360528,23.56249,0.294072,1
1774620108404,1.7025403,-2.3900752,-3.9460547,0.27072588,-0.355411,-0.25430512,24.18245,0.2642806,1
1774620108430,1.469672,-1.8593245,-4.0169277,0.17283422,-0.32022128,-0.34813324,21.752731,0.25361007,1
1774620108441,0.9775473,-1.1967931,-3.8501456,0.058938168,-0.24839298,-0.37417993,17.211533,0.20518342,1
1774620108462,0.47902614,-0.4646721,-2.9710336,-0.026496362,-0.105252676,-0.3483997,9.272427,0.13316253,1
1774620108482,0.14425689,0.28095675,-1.7797823,-0.06358461,-0.0605536,-0.2921428,3.2673717,0.09305716,1
1774620108503,-0.20105323,0.77877283,-0.098163605,-0.02120042,-0.13729478,-0.2660628,0.6565456,0.090088725,1
1774620108525,0.011820108,0.9599619,1.388174,0.118942186,-0.25838533,-0.31888896,2.8486938,0.1826004,1
1774620108545,0.18714982,1.0654821,2.6971698,0.2921428,-0.35091442,-0.40409034,8.445003,0.37177736,1
1774620108561,-0.045879036,1.3092513,3.333952,0.40498966,-0.5015323,-0.47223812,12.831479,0.6385602,1
1774620108581,-0.16991997,1.7144604,3.8976464,0.4434935,-0.7983216,-0.5725113,18.159895,1.161773,1
1774620108602,0.23231801,1.9848237,3.5843186,0.24964203,-0.86380476,-0.61514527,16.840836,1.1868834,1
1774620108625,1.0472605,2.7211137,1.2336512,-0.24854288,-0.2883124,-0.67080265,10.023109,0.5948738,1
1774620108641,1.2806672,2.7400413,0.08364725,-0.35304612,0.43226874,-0.6790963,9.154931,0.77266955,1
1774620108661,-0.22810748,2.3326054,4.4202394,0.0090430705,0.59634304,-0.5529929,25.031597,0.66150796,1
1774620108681,-1.2435765,1.5687513,7.4159293,0.33356106,0.13517974,-0.53184247,59.00347,0.41239294,1
1774620108701,-0.3522504,0.28652668,6.0650663,0.20725785,-0.2926424,-0.61427927,36.991207,0.5059344,1
1774620108726,0.593819,-0.011177063,2.0601096,-0.07074579,-0.3480333,-0.6515341,4.5967975,0.5506288,1
1774620108740,0.6088997,-0.30264664,-0.45962,-0.27493933,-0.15902814,-0.5797058,0.67360437,0.43694037,1
1774620108765,-0.079657674,-0.58729744,-1.2736897,-0.28301647,0.039819486,-0.4159479,1.9735492,0.25469658,1
1774620108780,-0.53800565,-1.1486907,-0.849154,-0.18900517,-0.032291923,-0.3094129,2.3300028,0.13250206,1
1774620108800,-0.27365428,-2.2929363,-0.7312231,-0.12607005,-0.3572429,-0.32120386,5.8671308,0.24668807,1
1774620108820,0.10935229,-3.126165,-1.4614406,-0.0725111,-0.7215804,-0.36300516,11.920673,0.6577089,1
1774620108840,0.3896582,-3.4966722,-2.5530167,0.0049795173,-0.9506382,-0.4043235,18.896444,1.0672152,1
1774620108860,0.66928506,-3.5687127,-3.7991977,0.056623276,-0.9886757,-0.45686656,27.617556,1.189413,1
1774620108880,1.0226758,-3.430358,-4.769658,0.061386295,-0.8451357,-0.49600324,35.56286,0.9640418,1
1774620108900,1.1785016,-2.8275275,-5.3776875,-0.039869446,-0.5736937,-0.42534074,38.3033,0.51162875,1
1774620108919,0.9296634,-1.6860838,-5.0957904,-0.29710567,-0.39076722,-0.29002774,29.674232,0.3250869,1
1774620108948,0.7609896,-0.77096605,-3.9345877,-0.41698048,-0.2541719,-0.21761657,16.654474,0.28583303,1
1774620108960,1.0695767,-0.14294243,-1.0068469,-0.24231431,-0.14160815,-0.20264472,2.1781678,0.119833976,1
1774620108980,0.68724597,0.33941126,1.3661871,0.07639146,-0.13796094,-0.25452164,2.4539742,0.08965014,1
1774620109000,0.6725644,0.34323978,2.8082762,0.29750535,-0.1268528,-0.33515984,8.456572,0.21693319,1
1774620109019,0.27711588,0.7343478,2.07197,0.26842764,0.025730282,-0.29522377,4.9091196,0.15987253,1
1774620109044,-0.40258467,1.8388171,1.4639554,0.16708863,0.14833634,-0.17311734,5.686488,0.07989189,1
1774620109059,-0.56963193,2.4185057,2.5600142,0.25683653,0.085451186,-0.12230628,12.727324,0.08822574,1
1774620109079,-0.6211944,2.3620605,4.3334794,0.3759619,-0.043599922,-0.09775842,24.744255,0.15280502,1
1774620109099,-0.8133227,2.4940915,3.0971785,0.006445061,-0.011024885,0.10713457,16.4745,0.011640904,1
1774620109119,-1.4971296,3.6430092,0.2263794,-0.72053117,0.25092438,0.5297607,15.56416,0.8627746,1
1774620109145,-2.5193133,4.240602,0.51336765,-1.0287117,0.46879077,0.91731375,24.593191,2.119477,1
1774620109159,-2.6860244,2.1957026,4.473562,-0.7056926,0.3503482,1.026197,32.04859,1.6738261,1
1774620109178,-1.5884914,-0.2962532,7.596752,-0.17131872,-0.14495559,0.74774367,60.321716,0.6094828,1
1774620109199,-0.040655673,-2.164669,6.328804,0.014988515,-0.4618128,0.39208287,44.741203,0.3672247,1
1774620109218,0.34831536,-1.6560907,1.8146782,0.0027145864,-0.41316673,0.241848,6.1570168,0.22920458,1
1774620109248,-0.1282364,-1.0327396,-1.1115623,-0.027578866,-0.18710662,0.27855322,2.3185663,0.11336137,1
1774620109261,-0.58963937,-0.72260475,-2.8235006,-0.08315295,0.04055226,0.45355245,8.841989,0.21426873,1
1774620109278,-0.6782697,-0.7334571,-3.843474,-0.20042974,0.10297109,0.6266032,15.770301,0.4434067,1
1774620109298,-0.1839541,-1.3771873,-4.3369446,-0.36970004,0.018485835,0.7022119,20.73957,0.6301214,1
1774620109318,0.47351575,-2.009714,-4.4364815,-0.48354614,-0.155714,0.6854747,23.945534,0.72793925,1
1774620109342,0.5816498,-2.30457,-3.8208785,-0.36312175,-0.30395043,0.6383608,20.248472,0.6317478,1
1774620109358,0.68062925,-2.5517564,-2.972505,-0.04161811,-0.3356095,0.4915067,15.810504,0.35594463,1
1774620109379,0.98078275,-3.0567112,-2.7059407,0.17111887,-0.33655876,0.2655465,17.627533,0.21306841,1
1774620109398,0.99720895,-2.736678,-3.3933997,0.106551684,-0.3742632,0.11168109,19.998993,0.16389886,1
1774620109418,0.45234337,-1.6930115,-4.0175757,-0.027045941,-0.2855978,0.05997071,19.211817,0.08589407,1
1774620109440,0.24218756,-0.7651429,-3.2589507,-0.021650076,-0.049711905,0.03404058,11.264858,0.0040987604,1
1774620109458,0.18687111,-0.07941103,-1.5337787,0.09269563,0.17018625,-0.013123277,2.393704,0.03772806,1
1774620109478,0.45112693,0.50106573,0.22267437,0.14986849,0.20694143,-0.10368721,0.50416625,0.07603636,1
1774620109498,0.5867552,0.85708666,1.344758,0.24031584,0.21267037,-0.23453695,2.8872533,0.15798797,1
1774620109519,0.30893302,1.1078796,2.6425095,0.45883173,0.24874273,-0.30451664,8.305693,0.3651299,1
1774620109543,-0.3207572,1.5129719,3.8229856,0.66537344,0.27933595,-0.31807292,17.007189,0.62192076,1
1774620109557,-0.5988002,1.6115775,3.872613,0.715585,0.16832101,-0.29339185,17.952875,0.6264726,1
1774620109578,-0.7750421,1.8382225,3.951933,0.64142513,-0.31542495,-0.2621158,19.597527,0.5796238,1
1774620109597,-0.71335906,2.0407438,4.0729637,0.39647952,-0.74511236,-0.2742232,21.26255,0.78758675,1
1774620109617,0.39655283,2.5191288,1.8835216,0.063517995,-0.5969259,-0.28817916,10.050918,0.44340235,1
1774620109638,1.0531273,2.7483644,0.37973118,-0.044316042,-0.028461523,-0.2777705,8.80678,0.07993042,1
1774620109657,0.6650491,2.274928,1.3918462,0.09496056,0.36175612,-0.18164414,7.554824,0.17287959,1
1774620109677,-0.25586846,1.639472,3.028932,0.12803522,0.374513,-0.12572032,11.927767,0.1724586,1
1774620109697,0.23494515,0.72364235,2.4225812,-0.052326567,0.2608501,-0.15021822,6.4477572,0.09334636,1
1774620109717,0.3899449,0.21867466,1.2452269,-0.2119709,0.22384514,-0.10390371,1.7504656,0.10583429,1
1774620109737,0.16186632,-0.12368536,0.68944454,-0.2551045,0.21203752,-0.05767247,0.51683253,0.11336433,1
1774620109758,0.20204505,-0.99085045,0.36046362,-0.22652641,0.13697837,-0.066116005,1.1525408,0.07444861,1
1774620109776,0.103221215,-1.803287,-0.25468493,-0.1576292,0.08565103,-0.064217456,3.3273633,0.036306947,1
1774620109796,-0.42659554,-2.1627572,-1.1449885,-0.087866,0.12788534,-0.02844487,6.170501,0.024884205,1
1774620109816,-0.6038171,-2.4260855,-2.1063337,-0.036188934,0.1620425,-0.02021784,10.687127,0.027976172,1
1774620109836,-0.66350996,-2.746996,-2.6567125,0.023815084,0.11394601,-0.029011102,15.0443535,0.014392495,1
1774620109864,-0.7447429,-2.8156207,-2.9709558,0.07647473,-0.028694678,-0.022749234,17.30894,0.007189297,1
1774620109876,-0.67409813,-2.7529628,-3.3571424,0.11960834,-0.17011964,0.012490429,19.30362,0.04340286,1
1774620109896,-0.282984,-2.5367954,-3.7603717,0.16394104,-0.19759858,0.01582121,20.655806,0.06617217,1
1774620109916,0.46678874,-2.288556,-4.2400675,0.17076914,-0.073510334,-0.016370788,23.433554,0.03483387,1
1774620109936,0.8349051,-1.8528762,-4.4879665,0.20317765,0.23108958,-0.065266654,24.27206,0.098943286,1
1774620109959,0.8383766,-1.0653825,-3.8040452,0.28794602,0.6030379,-0.035389546,16.308676,0.44782,1
1774620109976,0.4825621,0.12577105,-2.0844297,0.29747206,0.82243645,0.06783135,4.5935316,0.7694925,1
1774620109996,0.43100446,0.9043498,-0.58187723,0.16021056,0.7954072,0.1541985,1.3421946,0.68211716,1
1774620110016,0.42105347,1.2610054,0.84557295,0.07534227,0.62557065,0.20534265,2.4824142,0.4391807,1
1774620110035,0.096020475,1.4703541,2.5368047,-0.002781202,0.49223948,0.2585352,8.606539,0.3091479,1
1774620110058,-0.09157506,1.8086476,3.0058126,-0.07565869,0.41138476,0.31345978,12.314501,0.2732187,1
1774620110075,-0.08411327,2.2308059,4.087155,-0.13512978,0.20615868,0.30704805,21.688404,0.15503997,1
1774620110095,0.030310273,2.0476065,4.2539635,-0.45207024,0.10460318,0.3241183,22.289816,0.32036197,1
1774620110117,0.0572533,2.442752,2.276382,-1.0864508,0.38620406,0.43533307,11.152229,1.5190438,1
1774620110143,-0.54139197,2.7259011,1.5194101,-1.3839895,0.79374176,0.5826202,10.032249,2.8848991,1
1774620110157,-1.4998397,1.5251927,5.8431807,-0.8098294,0.80888015,0.58843243,38.718494,1.6563635,1
1774620110175,-1.179565,-0.38292885,10.851231,0.101955205,0.30408365,0.28519812,119.28722,0.18419969,1
1774620110195,-0.25128287,-1.9995496,9.726913,0.50974274,-0.035522778,-0.016520673,98.67419,0.26137245,1
1774620110215,-0.0809249,-1.3891659,3.6555047,0.4655599,-0.049062405,-0.13081641,15.299046,0.23626608,1
1774620110234,-0.6401987,-1.0525818,-0.50613594,0.22654307,0.07227795,-0.061386295,1.7739564,0.06031414,1
1774620110256,-1.5247227,-0.69048405,-2.8796158,-0.027095903,0.27413994,0.2713254,11.093735,0.14950438,1
1774620110275,-2.1210132,-0.42873287,-3.6115537,-0.1991807,0.27497262,0.6090666,17.725828,0.48624504,1
1774620110294,-1.1794188,-1.3290815,-3.2384443,-0.32716596,-0.02781202,0.71966517,13.645008,0.625729,1
1774620110314,0.23007663,-2.6674488,-3.1841412,-0.40677163,-0.3530961,0.6184761,17.306973,0.6726527,1
1774620110335,1.1745412,-3.292728,-3.761292,-0.35794237,-0.4035241,0.44725728,26.368921,0.4909935,1
1774620110360,1.2439775,-3.161246,-4.02207,-0.14354001,-0.23348774,0.32278597,27.718002,0.17931104,1
1774620110374,0.80493164,-2.738036,-3.6623197,0.17248449,-0.07036275,0.25801894,21.55734,0.10127559,1
1774620110394,0.44709486,-2.3099186,-3.1941595,0.32255283,-0.06616596,0.1791294,15.738274,0.1405056,1
1774620110414,0.7535299,-2.0450518,-3.604773,0.25838533,-0.15146726,0.044499233,17.744432,0.09168549,1
1774620110434,0.91324955,-1.6148119,-3.8246474,0.11086504,-0.097941615,-0.031159457,18.06957,0.02285453,1
1774620110459,0.50444525,-0.53237295,-3.3270211,0.08220367,0.1729175,-0.042750575,11.606956,0.03848552,1
1774620110474,0.38223287,0.2731533,-1.6647525,0.2179996,0.40409034,-0.08087136,2.9921155,0.21735302,1
1774620110494,0.44334343,0.6567564,0.19977188,0.40697148,0.47027296,-0.12089069,0.6677912,0.40139702,1
1774620110513,0.37137264,0.97994184,1.6432056,0.54997855,0.32719928,-0.15869506,3.7983284,0.4347199,1
1774620110533,0.27054226,1.3668427,2.5526276,0.5089267,-0.014155819,-0.21018894,8.457359,0.30338615,1
1774620110558,0.23893471,1.7230396,2.730948,0.38565448,-0.34486905,-0.27242458,10.484033,0.3418792,1
1774620110576,0.16322683,2.030445,2.9670815,0.34646782,-0.532009,-0.3202546,12.952923,0.5056366,1
1774620110594,0.38332462,2.4906712,3.109284,0.2330714,-0.5976587,-0.361906,16.018028,0.5424941,1
1774620110613,1.0954769,3.1949515,2.1357112,-0.13697837,-0.39997682,-0.39759532,15.969047,0.33682656,1
1774620110635,1.7106872,3.3216133,0.9600043,-0.46344486,0.13026685,-0.4439598,14.881174,0.4288509,1
1774620110656,0.97138846,2.3508005,2.8227382,-0.3079307,0.5271294,-0.3832896,14.43771,0.51959765,1
1774620110674,0.016672492,1.3595338,6.232443,0.0545915,0.48577774,-0.42337558,40.691956,0.4182071,1
1774620110693,0.72561383,-0.047424316,7.215583,0.2725911,0.09962366,-0.6394933,52.5934,0.49318245,1
1774620110713,0.97732306,-0.9378681,5.218518,0.21523507,-0.10335413,-0.72932446,29.067684,0.5889224,1
1774620110733,0.4403184,-0.5693259,1.9674182,-0.025563745,-0.15193358,-0.6841258,4.3887467,0.4917654,1
1774620110754,-0.22890478,-0.77508545,-0.08178043,-0.30761427,-0.20329422,-0.55282634,0.6598429,0.44157207,1
1774620110773,-0.76508915,-1.1793413,-0.9226861,-0.45286962,-0.28514814,-0.40357408,2.8275568,0.4492724,1
1774620110792,-0.7810535,-2.0619588,-1.0183883,-0.4546516,-0.46799138,-0.33894026,5.8988333,0.5406045,1
1774620110812,-0.43402565,-3.039502,-1.3597102,-0.36856756,-0.6615764,-0.3447025,11.275763,0.6923452,1
1774620110833,0.019118905,-3.6610467,-2.2540507,-0.19893089,-0.7428641,-0.4282052,18.484373,0.7747802,1
1774620110852,0.50886273,-4.0777225,-3.164132,0.06345138,-0.63734496,-0.54509896,26.898495,0.70736754,1
1774620110879,0.7457602,-4.108952,-3.9755085,0.3670687,-0.39972702,-0.63509667,33.244312,0.69786894,1
1774620110891,0.7394803,-3.7052042,-4.4120064,0.57429326,-0.20324425,-0.6522835,33.74117,0.79659474,1
1774620110912,0.7031647,-2.9933786,-4.9957204,0.5023984,-0.08964797,-0.6017056,34.41198,0.6224905,1
1774620110932,0.62949955,-2.252553,-5.6016693,0.19183633,-0.020750765,-0.50746113,36.848965,0.29474857,1
1774620110957,1.0042312,-1.4710574,-5.5312443,-0.1353796,0.16349138,-0.4832297,33.767155,0.278568,1
1774620110978,1.4502925,-0.90194464,-4.11199,-0.19220272,0.5025316,-0.4743365,19.825314,0.514475,1
1774620110992,0.7939675,0.13245726,-1.4467368,-0.10027316,0.69193643,-0.36107332,2.7409768,0.6192047,1
1774620111012,-0.17533958,1.0190883,1.1555452,0.023082312,0.5248312,-0.20717457,2.4045696,0.31890187,1
1774620111032,-0.77879107,1.3648233,3.096878,-0.03420712,0.15664662,-0.08100459,12.059912,0.032270037,1
1774620111051,-0.75167656,1.6194305,3.051323,-0.15446496,-0.06371784,7.327718E-4,12.498144,0.027919924,1
1774620111072,-0.48530328,2.0712247,3.6569443,-0.15293281,-0.039169986,0.046464395,17.898733,0.027081672,1
1774620111091,-0.4743942,2.3434181,3.7711167,-0.2593346,0.12833498,0.14400631,19.93798,0.10446212,1
1774620111111,-1.0845488,2.9771614,3.2353973,-0.68694025,0.311478,0.38678694,20.507532,0.7185096,1
1774620111131,-1.7660176,3.7386208,2.9496946,-1.1538991,0.32348543,0.63707846,25.796803,1.841995,1
1774620111152,-2.2528913,2.771459,5.540147,-0.99527067,0.07644142,0.68304324,43.44973,1.462955,1
1774620111174,-1.7936361,0.627326,9.698889,-0.14798659,-0.36293855,0.3503815,97.679115,0.2763916,1
1774620111191,-0.9320787,-1.7682137,10.378851,0.65623045,-0.45758268,-0.106435105,111.715904,0.65134877,1
1774620111210,-0.7849863,-2.0066895,5.4011154,0.9287716,-0.2177498,-0.33387747,33.815056,1.0215058,1
1774620111231,-0.79556954,-0.7635374,0.2818823,0.7941415,-0.040768757,-0.31231067,1.2953779,0.72986066,1
1774620111252,-1.5303302,-0.25982046,-2.3885655,0.4822971,0.016454058,-0.037771057,8.114662,0.23430787,1
1774620111273,-1.7673094,0.14301395,-3.695302,0.067498274,-0.129201,0.27532235,16.799093,0.09705131,1
1774620111296,-0.81825674,-0.44911718,-4.466937,-0.28311637,-0.38125783,0.43027028,20.824778,0.41064495,1
1774620111311,0.45804358,-1.567738,-4.6825404,-0.40214184,-0.48740983,0.44440946,24.593792,0.59678614,1
1774620111330,1.1822319,-2.1625872,-4.838546,-0.34443605,-0.32023793,0.4301204,29.485981,0.40619206,1
1774620111350,1.2838567,-2.2539582,-5.2043486,-0.21938188,-0.0038970138,0.44007942,33.813858,0.2418135,1
1774620111382,1.2352775,-2.1121464,-4.8950806,-0.07582523,0.12743568,0.4124506,29.948887,0.19210482,1
1774620111390,1.340068,-2.2322216,-4.16396,0.007710758,0.045082122,0.34948218,24.117157,0.12422965,1
1774620111409,1.3003905,-1.9757941,-3.7178054,-0.03407389,-0.091330014,0.27222472,19.416855,0.0836085,1
1774620111429,1.1633145,-1.3603466,-3.6371136,-0.12019123,-0.15191692,0.21108824,16.432438,0.08208293,1
1774620111450,0.8624438,-0.5857992,-3.1659565,-0.10445329,0.022849157,0.16600612,11.11025,0.038990602,1
1774620111471,0.8552842,0.12801933,-1.8964882,0.07084571,0.35557753,0.10025651,4.344568,0.14150587,1
1774620111492,0.8583732,0.6816807,-0.2798543,0.3463346,0.516804,0.021933192,1.2798116,0.38751507,1
1774620111509,0.7292413,1.0984955,2.064086,0.5542586,0.2795691,-0.062485453,5.998936,0.3892659,1
1774620111530,0.4621703,1.4691114,2.8505983,0.5119577,-0.12703599,-0.10638514,10.497801,0.28955662,1
1774620111551,0.1481775,2.094161,2.1168413,0.40310776,-0.36203924,-0.09699234,8.888484,0.3029758,1
1774620111582,-0.057204485,2.3859558,2.2793818,0.49605322,-0.4205111,-0.1326317,10.891639,0.44048953,1
1774620111589,0.14822543,2.407072,3.3535528,0.58168757,-0.5035475,-0.27085912,17.062283,0.66528517,1
1774620111613,0.64174134,2.989274,2.7607903,0.3665691,-0.45630035,-0.31207752,16.969555,0.4399753,1
1774620111628,1.0091503,4.512589,0.578804,-0.2024282,0.01672052,-0.18907177,21.716858,0.077004895,1
1774620111649,0.8039001,4.685414,-0.61551285,-0.6290846,0.6272194,-0.031142803,22.978214,0.79012144,1
