timestamp,acc_x,acc_y,acc_z,gyro_x,gyro_y,gyro_z,acc_mag_sq,gyro_mag_sq,label_id
1774611439289,0.4401951,-0.24973679,-0.80678177,-0.12109054,-0.13889356,-0.017686447,0.907037,0.03426715,0
1774611439289,0.3664532,-0.10899067,-0.45835257,-0.09374483,0.01232389,-0.004779671,0.35625398,0.008962817,0
1774611439369,0.17204544,-0.12260723,0.37114,0.048379593,0.10523602,0.010608537,0.18237707,0.013527746,0
1774611439369,0.12385076,-0.16508532,0.70422983,0.11029881,0.03743798,0.031126149,0.53853184,0.014536267,0
1774611439369,0.34863624,-0.27465773,-0.39887142,-0.15409859,-0.04439931,-0.043316808,0.3560825,0.027594019,0
1774611439369,0.76130915,-0.23679066,-0.98134136,-0.38841903,0.076124996,-0.08778273,1.5986923,0.16437016,0
1774611439388,0.49199563,-0.07470274,-0.08132982,-0.35354576,0.1823103,-0.05399196,0.25425476,0.16114677,0
1774611439408,0.07769492,-0.119522095,0.62943363,-0.15812883,0.16389108,-0.051510528,0.41650873,0.054518346,0
1774611439437,0.010722667,-0.19119596,0.8725872,0.046847433,0.06954671,-0.04434935,0.7980793,0.008998292,0
1774611439448,-0.121910095,-0.1388526,0.72091484,0.11321325,-0.0067281774,0.0046630935,0.55386037,0.012884253,0
1774611439467,-0.034578323,-0.08040047,0.047592163,0.02426474,-0.020567572,0.035722625,0.009924909,0.0022879085,0
1774611439486,0.16641626,-0.050061703,-0.30704355,-0.056706548,0.01603771,0.041085184,0.124476284,0.0051608332,0
1774611439507,0.31712857,-0.18671656,-0.10096836,-0.076707885,-0.01871899,0.023815084,0.14562821,0.006801659,0
1774611439536,0.43176135,-0.07900286,0.250206,-0.07549215,-0.03472339,0.03532293,0.25526237,0.008152489,0
1774611439557,0.42237672,-0.09595585,0.160038,-0.02614663,-0.0046630935,0.04994506,0.21322179,0.0031998998,0
1774611439566,0.33625263,-0.12925243,0.2479372,0.033540964,0.020784073,0.04008595,0.19124487,0.0031638574,0
1774611439584,0.22212052,-0.14099312,-0.013792038,0.018402565,0.06618262,0.008027182,0.06940681,0.00478323,0
1774611439607,0.26871502,-0.24373055,-0.13079357,-0.036272205,0.0060786754,-0.0023648546,0.14871931,0.0013582158,0
1774611439637,-0.43698555,-0.6646943,-0.02750969,-0.09954039,-0.28115124,0.16347472,0.6335317,0.115678295,0
1774611439649,0.21194479,0.55957794,0.89359,0.0032142035,-0.35830876,0.39786178,1.1565511,0.2866895,0
1774611439667,0.41821122,0.21774912,0.41185188,0.097475305,-0.18737309,0.28866214,0.39193726,0.12793593,0
1774611439688,0.93228877,-0.5236211,-0.08665657,0.11216405,-0.13131604,0.2373348,1.1508507,0.08615248,0
1774611439707,-0.008536041,-0.07807398,0.045413017,0.26827776,-0.010525268,0.333611,0.008230752,0.18338004,0
1774611439736,0.3353899,-0.21869135,0.1920619,0.392366,0.14112519,0.2797856,0.19720006,0.25214738,0
1774611439746,0.4480272,-0.30320168,0.4213767,0.47355378,0.13378082,0.17086907,0.47021797,0.27134672,0
1774611439768,0.47411776,-0.10298252,0.45040035,0.49993357,0.09932389,0.038004212,0.43825352,0.2612431,0
1774611439787,0.7815035,-0.08384228,0.21965694,0.43017036,0.049878445,-0.12182331,0.6660264,0.20237531,0
1774611439807,0.8735942,-0.06633997,-0.14524746,0.29327527,0.006378446,-0.22792535,0.78866464,0.13800102,0
1774611439834,0.6205895,-0.02076006,-0.30918837,0.16051033,-0.027279096,-0.26141635,0.48115975,0.09484622,0
1774611439848,0.33293086,-0.2137332,-0.12442112,0.13388073,0.05071114,-0.2204644,0.17200544,0.069100216,0
1774611439865,0.2552423,-0.07972431,-0.08448124,0.112197354,0.22739242,-0.1913034,0.078641675,0.10089255,0
1774611439886,0.3563069,-0.22467422,-0.16509438,0.037354708,0.26794466,-0.22444467,0.20468926,0.12356513,0
1774611439904,0.26814532,-0.14549875,-0.015323639,-0.014572167,0.19783174,-0.2215469,0.093306616,0.088432774,0
1774611439926,0.19867817,-0.037258625,0.22545958,0.025946783,0.11317994,-0.21448565,0.09169324,0.059487022,0
1774611439949,0.31765917,-0.20338964,0.4422021,0.110798426,0.020334417,-0.21933192,0.33781737,0.060796272,0
1774611439966,0.2759536,-0.21222544,0.29102516,0.1559305,-0.035822548,-0.21473545,0.20588568,0.07170889,0
1774611439986,0.12056211,-0.21424103,-0.10339117,0.11889223,-0.07287749,-0.20740773,0.07112417,0.062464453,0
1774611440004,0.00522995,-0.2736044,-0.3770504,0.038287327,-0.063984305,-0.1976985,0.21705371,0.04464461,0
1774611440023,0.1014747,-0.37533236,-0.50751495,-0.03207542,-0.036405437,-0.20479307,0.4087429,0.04429439,0
1774611440050,0.05761479,-0.42359447,-0.3665409,-0.068913855,-0.08966462,-0.21758327,0.31710398,0.06013134,0
1774611440068,-0.00802739,-0.41841507,-0.017532825,-0.060919985,-0.19773181,-0.2043101,0.175443,0.08455174,0
1774611440090,-0.08345306,-0.43390417,0.2678771,-0.019251915,-0.23818415,-0.15418185,0.2669954,0.08087437,0
1774611440103,0.04488063,-0.44178104,0.25864363,0.01002565,-0.16700536,-0.108433574,0.2640813,0.039749146,0
1774611440126,0.2409249,-0.4335084,0.12243605,5.828867E-4,-0.15909475,-0.10966596,0.26096493,0.0373381,0
1774611440149,0.3789835,-0.36053753,0.12391758,-0.02819506,-0.11596114,-0.16292515,0.28897136,0.040786553,0
1774611440164,0.43233526,-0.33428335,-0.043229103,-0.08441865,-0.04486562,-0.22352871,0.3005279,0.059104517,0
1774611440187,0.28528196,-0.28377628,0.011911392,-0.12433805,0.039036755,-0.21758327,0.16205664,0.0643263,0
1774611440202,0.17213334,-0.2686906,0.23624897,-0.08401895,0.0742098,-0.17278427,0.15763809,0.042420685,0
1774611440222,0.09111245,-0.23677588,0.35792875,-0.009542688,0.026962671,-0.13611236,0.19247729,0.019344622,0
1774611440242,0.044871643,-0.13042593,0.21613121,0.017453292,-0.047796708,-0.11920865,0.06573708,0.016799845,0
1774611440266,0.14265701,-0.077237606,-0.0378294,-0.00912634,-0.067864664,-0.10871669,0.027747734,0.016508222,0
1774611440282,0.3746997,-0.033415794,-0.11264467,-0.035672665,-0.012773545,-0.1076675,0.1542053,0.013027993,0
1774611440303,0.577604,0.03010416,-0.08720398,-0.032824848,0.07277756,-0.13224865,0.3421372,0.023863751,0
1774611440322,0.6655553,0.07635927,-0.11737394,-0.02691271,0.07810681,-0.16132638,0.46257123,0.032851167,0
1774611440341,0.5753179,0.12661791,-0.09635258,-0.039886102,-0.023598583,-0.16538993,0.3563066,0.02950162,0
1774611440364,0.5284717,0.16052961,-0.052500248,-0.055990428,-0.09604307,-0.15966098,0.3078084,0.037850827,0
1774611440381,0.6056224,0.070589066,-0.046202183,-0.081670746,-0.07913936,-0.15078445,0.37389597,0.0356691,0
1774611440402,0.70079184,0.0070877075,0.057504654,-0.08365256,-0.028078483,-0.1469374,0.49446622,0.029376753,0
1774611440424,0.8141181,-0.06536627,0.24242496,-0.03608901,-0.013323124,-0.17058595,0.7258309,0.030579487,0
1774611440453,0.8468944,-0.037640095,0.3351078,0.019734878,-0.05084437,-0.19654939,0.8309441,0.041606277,0
1774611440461,0.7108118,-0.015422344,0.22015333,0.04669755,-0.08623392,-0.21298678,0.5539588,0.054980323,0
1774611440482,0.52164465,0.0037522316,-0.005949974,0.04073545,-0.06043702,-0.2136363,0.27216262,0.050952476,0
1774611440501,0.4498609,-0.022556305,-0.17494631,0.01680379,-0.0196183,-0.21661735,0.23348983,0.04759032,0
1774611440525,0.36766803,0.035450935,-0.10587978,0.0021316998,-0.02473105,-0.21913208,0.14764708,0.04863504,0
1774611440552,0.36826906,0.011919022,0.074436665,0.028261676,-0.038303982,-0.2203145,0.14130498,0.0508044,0
1774611440563,0.3020539,-0.0046863556,0.14847231,0.07534227,-0.06191922,-0.20850688,0.113302544,0.052985568,0
1774611440581,0.21270879,-0.012259483,-0.0028944016,0.07002967,-0.09207944,-0.198348,0.0454037,0.052724708,0
1774611440602,0.12999338,0.0017652512,-0.24416399,0.015155054,-0.108433574,-0.18740639,0.07651745,0.04710867,0
1774611440623,0.1967397,-0.09274387,-0.307302,-0.029260911,-0.08157083,-0.17426646,0.14174245,0.037878796,0
1774611440641,0.18999143,-0.1667242,-0.13573694,-0.0411518,-0.08748296,-0.1550312,0.082318224,0.033381414,0
1774611440663,0.22819729,-0.21966171,0.08950424,-0.054158498,-0.08585088,-0.13722818,0.108336285,0.02913509,0
1774611440685,0.21297836,-0.17551136,0.22936344,-0.052476455,-0.013572932,-0.10541922,0.1287716,0.014051214,0
1774611440701,0.12726982,-0.20045948,0.31704712,-0.012507083,0.038403906,-0.059054747,0.15690048,0.00511875,0
1774611440721,0.059314802,-0.19514894,0.32970333,0.027095903,0.024764357,-0.0056956355,0.15030564,0.0013799017,0
1774611440740,0.06505115,-0.16514587,0.20992279,0.03530628,0.0027645482,0.032275267,0.07557239,0.002295869,0
1774611440769,0.26711833,-0.099760056,0.012279987,0.020867342,0.033357773,0.025813552,0.081455074,0.0022145265,0
1774611440780,0.4181021,-0.104503155,-0.06537247,-0.0035972435,0.021433575,-0.012373852,0.19000383,6.254505E-4,0
1774611440800,0.30582732,-0.029932499,0.04666233,-0.018768951,-0.016270865,-0.024064893,0.09660368,0.0011961337,0
1774611440822,0.18922535,-0.041698456,0.192832,0.008027182,-0.009542688,0.005595712,0.074729174,1.8681053E-4,0
1774611440842,0.26866198,-0.09740877,0.28119373,0.04439931,0.020933958,0.027645482,0.16073763,0.003173802,0
1774611440869,0.3493867,-0.08338642,0.21203518,0.045215353,0.051976837,0.02549713,0.17398328,0.0053961235,0
1774611440882,0.40519854,-0.032580376,0.08191013,0.03270827,0.10280456,-0.0051793642,0.17195663,0.011665434,0
1774611440902,0.41460407,-0.01864767,0.021251202,0.02030111,0.097591884,-0.048179746,0.17269588,0.012257599,0
1774611440922,0.24647377,0.001162529,0.07590294,0.0194018,0.04439931,-0.06466711,0.06651193,0.006529564,0
1774611440939,0.04232207,-0.020673275,0.13110447,0.035472818,0.054391652,-0.042917114,0.019406924,0.006058651,0
1774611440973,0.011729866,-0.065773964,0.05958748,0.02972722,0.107017994,-0.021183766,0.008014472,0.012785311,0
1774611440981,0.06601454,-0.076985836,0.038737297,0.0015321593,0.12363859,-0.02120042,0.011785317,0.015738307,0
1774611441004,0.08302127,-0.07703829,0.17861605,0.004230092,0.11169774,-0.024231432,0.04473112,0.013081442,0
1774611441021,0.017723858,-0.104020596,0.35536528,0.048046514,0.11332982,0.004596478,0.1374189,0.015173243,0
1774611441042,0.06645271,-0.14738846,0.3692627,0.09374483,0.11759322,0.046780817,0.16249426,0.024804704,0
1774611441071,0.13434145,-0.17690468,0.24020863,0.115611404,0.13183232,0.058888208,0.10704307,0.034213576,0
1774611441082,0.20870337,-0.18501043,-0.023458958,0.09031413,0.12956738,0.042484112,0.078336276,0.02674925,0
1774611441101,0.14647675,-0.15766048,-0.21219444,0.05082772,0.11760987,0.034473583,0.091338746,0.017603967,0
1774611441121,0.06103477,-0.18294191,-0.1808176,0.043899693,0.118942186,0.050128255,0.069887996,0.018587269,0
1774611441141,0.07174027,-0.23899603,-0.11999893,0.05287615,0.11254709,0.0688972,0.07666551,0.020209558,0
1774611441176,0.15980099,-0.19189215,-0.1598587,0.040419027,0.117276795,0.055224348,0.08791376,0.018437274,0
1774611441183,0.25542358,-0.15107489,-0.21914005,0.005612366,0.11847588,0.009009763,0.13608718,0.014149208,0
1774611441205,0.21367061,-0.14319897,-0.22431898,-0.023981623,0.10675153,-0.012357198,0.11648008,0.012123709,0
1774611441220,0.031982392,-0.13579416,-0.13226748,-0.047446974,0.061486218,0.015121746,0.036957614,0.0062604374,0
1774611441242,-0.03828928,-0.11870241,0.06513786,-0.03980283,0.063501336,0.050611217,0.019799273,0.00817818,0
1774611441271,0.1364311,-0.14026785,0.13089466,-0.014888591,0.121540196,0.037304748,0.055421926,0.016385334,0
1774611441280,0.3285793,-0.17464161,0.2395587,0.016986983,0.11546152,0.010825038,0.19585241,0.013737102,0
1774611441300,0.26538357,-0.1916852,0.32978296,0.0526763,0.033707503,0.014622129,0.21592847,0.004124795,0
1774611441322,0.11203334,-0.16522789,0.28457117,0.08077144,-0.0058788285,0.048462864,0.12083247,0.008907235,0
1774611441342,0.08846921,-0.1868434,0.071336746,0.08903178,0.0026646247,0.06948009,0.04782619,0.012761241,0
1774611441372,0.18700929,-0.22681761,-0.14779091,0.043050345,0.001398928,0.06426742,0.108260855,0.00598559,0
1774611441378,0.2873225,-0.21799421,-0.2701435,-0.024847627,-0.004579824,0.0390201,0.2030532,0.0021609473,0
1774611441397,0.2961281,-0.21057653,-0.009108067,-0.05057791,-0.013656202,0.020484302,0.13211729,0.0031642234,0
1774611441418,0.26917198,-0.19359589,0.3259368,6.661562E-5,0.018435873,0.025813552,0.21616772,0.0010062254,0
1774611441437,0.2611031,-0.29334784,0.43613052,0.066332504,0.051710375,0.04951206,0.3444376,0.009525408,0
1774611441457,0.23307262,-0.3054695,0.27673388,0.086950034,0.03232523,0.06346803,0.2242161,0.01263342,0
1774611441484,0.25174743,-0.25944805,-0.010183811,0.075392224,0.041734684,0.04568166,0.13079378,0.009512585,0
1774611441500,0.1885371,-0.2179842,-0.2512436,0.03792094,0.044799004,0.013955972,0.1461867,0.0036397178,0
1774611441518,0.08041772,-0.15001965,-0.3601532,-0.012457121,0.06175268,0.005046133,0.15868324,0.003994037,0
1774611441537,0.06585884,-0.1573453,-0.25254774,-0.033807427,0.06663227,0.0056456737,0.09287529,0.0056146756,0
1774611441559,0.054968446,-0.16707373,-0.124854565,-0.020017993,0.07336045,0.01270693,0.046523824,0.005943942,0
1774611441584,0.011992604,-0.16419744,0.023105621,0.011591118,0.051926874,0.0238817,0.027638493,0.00340109,0
1774611441596,-0.06403753,-0.14421034,-0.0045614243,0.027045941,0.022299578,0.030626532,0.024918232,0.0021667387,0
1774611441616,-0.08957687,-0.16714954,-0.19498873,-0.017303407,0.003680513,0.0366719,0.07398359,0.0016577822,0
1774611441636,-0.07442996,-0.12573195,-0.3241005,-0.087582886,-0.0018152756,0.03513974,0.12638947,0.0089088585,0
1774611441656,-0.06895012,-0.112241745,-0.10910702,-0.100073315,-0.023132274,0.028011868,0.029256668,0.011334435,0
1774611441684,-0.08663723,-0.14930058,0.23904943,-0.06025383,-0.049362175,0.022332886,0.0869413,0.006565906,0
1774611441696,-0.16478771,-0.17867708,0.31871557,-0.027012633,-0.04781336,0.04391635,0.1606601,0.0049444456,0
1774611441717,-0.23223558,-0.25131655,0.2524209,-0.032575037,-0.043183576,0.08714988,0.18080968,0.010521056,0
1774611441739,-0.18531671,-0.25233173,0.16321087,-0.034773353,-0.013356431,0.11238055,0.12465138,0.014016968,0
1774611441757,-0.07178387,-0.26593828,0.18037605,-0.016354134,0.0048296326,0.102771245,0.10841161,0.010852712,0
1774611441788,0.033395886,-0.2816329,0.08390379,-0.031542495,9.992343E-5,0.062468797,0.08747222,0.0048972894,0
1774611441799,0.01830712,-0.26991463,-0.023892403,-0.07604173,-0.011774311,0.022299578,0.073759906,0.00641825,0
1774611441817,-0.061721265,-0.3124442,0.06290674,-0.094161175,-0.0053125955,0.007027948,0.10538815,0.008943942,0
1774611441836,-0.18724549,-0.3772478,0.3243041,-0.0616361,0.010658499,0.012873468,0.28254992,0.0040783384,0
1774611441860,-0.27892992,-0.4932146,0.53961945,-0.03693836,-0.025996745,0.02781202,0.6122517,0.0028137818,0
1774611441887,-0.26630127,-0.55546045,0.7379856,-0.021999808,-0.04221765,0.046980664,0.9240755,0.0044735046,0
1774611441899,-0.26267898,-0.5259633,0.94917536,0.055390887,0.040752105,0.08749962,1.2465715,0.0123850675,0
1774611441917,-0.37585673,-0.38619995,0.97876453,0.18738973,0.14547186,0.1417747,1.2483988,0.076377034,0
1774611441935,-0.3858149,-0.23664093,0.66560364,0.24879268,0.13995941,0.16830437,0.6478803,0.109812796,0
1774611441959,-0.39250138,-0.14350796,0.36409378,0.23117286,0.022366194,0.1718683,0.30721617,0.08347985,0
1774611441989,-0.41929433,0.015413761,0.01587677,0.19373487,-0.016487366,0.17776377,0.17629738,0.069405,0
1774611441996,-0.3762733,-0.011025429,-0.21149015,0.13521305,0.012906776,0.18211044,0.18643124,0.051613368,0
1774611442018,-0.1894812,-0.045203686,-0.4300313,0.05933786,0.10040639,0.17408326,0.22287342,0.04390741,0
1774611442037,-0.051105678,-0.18255663,-0.29244995,0.050044984,0.090647206,0.1836093,0.12146568,0.04443379,0
1774611442055,0.1172737,0.07789755,0.033922672,0.030776417,0.13484667,0.13784437,0.020971898,0.038131885,0
1774611442076,0.2771072,0.071071625,-0.0800004,0.022282925,0.1643907,0.059254594,0.08823964,0.031031936,0
1774611442105,0.1173448,0.110305786,-0.03408432,0.022382848,0.14805321,0.04857944,0.027098909,0.024780707,0
1774611442117,0.015469074,0.019069195,-0.10051298,-0.01049196,0.096059725,0.06348468,0.010705786,0.013367857,0
1774611442137,-0.0346227,0.15869379,-0.032789707,-0.021650076,0.12908442,0.051027566,0.027457615,0.019735325,0
1774611442157,0.0042472184,0.088888645,0.11034012,0.0067281774,0.16097665,0.030643186,0.020094171,0.026897753,0
1774611442185,-0.13619712,0.060167313,0.1568532,0.0304933,0.12991711,0.052609686,0.046772685,0.020576077,0
1774611442199,-0.30491525,-0.022301674,0.11897421,0.043083653,0.048812594,0.10205513,0.10762553,0.01465412,0
1774611442217,-0.30145472,-0.06934261,0.03369665,0.04333346,0.029877106,0.13451359,0.096818805,0.020864334,0
1774611442237,-0.17819712,-0.09563351,-0.05498886,0.044599157,0.049928408,0.13211542,0.04392375,0.021936415,0
1774611442255,-0.08654377,-0.12340927,-0.07855415,0.05812213,0.05625689,0.115611404,0.028890427,0.019909017,0
1774611442276,-0.153178,-0.14591837,-0.12406826,0.048812594,0.03727144,0.11098162,0.060148608,0.01608875,0
1774611442304,-0.23816952,-0.1325469,-0.31257105,-6.161945E-4,0.058521822,0.110681854,0.17199406,0.015675656,0
1774611442314,-0.23823902,-0.1778326,-0.2810111,-0.020784073,0.10122243,0.11213074,0.16734952,0.023251262,0
1774611442337,-0.22583503,-0.22457361,-0.080257416,-0.0032308574,0.1349799,0.11860911,0.10787602,0.032298133,0
1774611442355,-0.3383371,-0.18548536,-0.07359171,-0.019734878,0.13742802,0.1599441,0.15429255,0.044858042,0
1774611442376,-0.46997532,-0.12466097,-0.031620026,-0.058821592,0.11950842,0.21078847,0.23741698,0.062174022,0
1774611442399,-0.35087276,-0.11566639,0.0060367584,-0.06618262,0.14815314,0.2221631,0.13652685,0.07568593,0
1774611442416,-0.13197422,-0.14702177,0.1724453,-0.054491576,0.12423813,0.20442668,0.06876998,0.06019471,0
1774611442433,-0.11901891,-0.20591211,0.23441839,-0.025397206,0.070346095,0.19311868,0.11151728,0.042888414,0
1774611442455,-0.34499982,-0.11670923,0.37837362,0.028378254,-0.020067954,0.28579766,0.2758125,0.08288834,0
1774611442476,-0.3380373,-0.009586334,0.12463522,0.039253253,0.030459993,0.31524175,0.12989506,0.101845995,0
1774611442506,0.052923337,-0.16296911,-0.07484484,-0.035173047,0.12122377,0.26932696,0.034961563,0.08846936,0
1774611442513,0.14927259,-0.018641949,-0.32129097,-0.14948545,0.20222837,0.23317131,0.12585773,0.11761107,0
1774611442537,0.026045129,-0.07022333,-0.2318263,-0.21931528,0.19235261,0.23488668,0.059353102,0.14027047,0
1774611442555,0.14173442,-0.10203314,0.19150734,-0.17238458,0.1198415,0.21466884,0.06717447,0.09016114,0
1774611442575,0.2185115,-0.040267467,0.48791695,-0.058788285,0.0944443,0.1891051,0.2874317,0.048136525,0
1774611442601,0.3040589,-0.031928062,0.3508854,0.0039636292,0.105968796,0.1488193,0.21659178,0.03339228,0
1774611442613,0.23106104,-0.052696705,0.017084122,-0.029544028,0.11276359,0.1354129,0.05645802,0.03192513,0
1774611442644,0.117149435,-0.04724741,-0.29273558,-0.09715888,0.11549483,0.13299808,0.10165043,0.040467393,0
1774611442654,0.13396038,-0.032534122,-0.17668533,-0.115394905,0.09116347,0.122689314,0.050221562,0.03667943,0
1774611442673,0.1469139,0.0016970634,0.24215317,-0.08205379,0.036955014,0.11263036,0.08022473,0.020784095,0
1774611442702,0.18758881,-0.0076065063,0.39525652,-0.032741576,0.05544085,0.11268032,0.19147514,0.016842555,0
1774611442714,0.1913429,-0.058681965,0.33233547,-0.0074942573,0.099956736,0.12295578,0.15050255,0.025165636,0
1774611442738,0.11871173,-0.083865166,0.1927185,-0.0062785223,0.07749062,0.13632886,0.058266263,0.024629775,0
1774611442755,0.07530606,-0.06012869,0.20685196,-0.005229326,0.025513783,0.14235757,0.052074194,0.020943977,0
1774611442776,0.09414652,-0.03271532,0.2082076,3.663859E-4,0.02559705,0.14204116,0.053284265,0.020831035,0
1774611442802,0.16061515,-0.059210777,0.09468317,-0.004030245,0.055590734,0.13401397,0.038268045,0.021066315,0
1774611442812,0.19366112,-0.14591122,0.07298136,-0.014522205,0.015388208,0.1264531,0.06412099,0.016438078,0
1774611442832,0.08555603,-0.26335812,0.2269392,0.023365429,-0.09749196,0.13604575,0.12817875,0.028559072,0
1774611442855,-0.014668055,-0.028317451,0.4674573,0.074942574,-0.08963132,0.16907044,0.21953335,0.042234976,0
1774611442875,0.08662167,-0.062137127,0.21718979,0.08739969,-0.028028522,0.113413095,0.05853574,0.021286834,0
1774611442892,0.28024623,-0.15486717,0.023955345,0.05057791,0.0351897,0.05625689,0.10309565,0.0069612777,0
1774611442914,0.276204,-0.17888165,-0.20419931,0.004346669,0.06686543,0.011058193,0.14998464,0.004612163,0
1774611442932,0.22590989,-0.16415119,-0.07643747,-0.0037804365,0.044882275,-0.029527374,0.08382358,0.002900576,0
1774611442951,0.29662895,-0.17932701,0.022331238,0.021450229,0.034606814,-0.089697935,0.1206456,0.009703464,0
1774611442972,0.3200881,-0.22474861,0.021736145,0.01224062,0.05330915,-0.12976722,0.15344077,0.01983123,0
1774611442992,0.1495751,-0.122404575,-0.1144042,-0.012640314,0.095343605,-0.13416386,0.05044391,0.02725012,0
1774611443022,0.05502248,-0.11246681,2.4461746E-4,-0.022532733,0.10523602,-0.12477106,0.015676316,0.027150162,0
1774611443033,-0.0040619522,-0.09620094,0.086630344,-0.01155781,0.12030781,-0.110681854,0.016775938,0.026858024,0
1774611443051,-0.026341066,-0.122590065,0.17234755,0.02904441,0.10873334,-0.09326187,0.045425855,0.021364294,0
1774611443071,-0.033144027,-0.1638012,0.18072987,0.05639012,0.05211007,-0.07454288,0.060592644,0.011451947,0
1774611443093,-0.11182271,-0.104866505,0.03870201,0.041867916,-0.011691041,-0.054491576,0.02499915,0.0048589343,0
1774611443116,-0.1036734,-0.08909464,-0.06298208,-0.0012656967,-0.03897014,-0.047913283,0.022652771,0.0038159564,0
1774611443131,0.040546075,-0.098593235,-0.06575346,-0.029710567,0.007144525,-0.057389356,0.015688129,0.0042273,0
1774611443151,0.09263069,-0.13745642,0.08095217,-0.012790199,0.024531202,-0.062235642,0.034027968,0.0046386444,0
1774611443172,0.01202181,-0.19723988,0.18262911,0.023365429,-0.016537327,-0.04300038,0.07240148,0.0026684594,0
1774611443190,-0.131873,-0.2018013,0.1603632,0.030260146,-0.06115314,-0.0070612556,0.08383061,0.004705244,0
1774611443218,-0.083088845,-0.17951441,-0.015044212,0.008959801,-0.04243415,0.01292343,0.03935551,0.00204795,0
1774611443235,0.09135866,-0.18517971,-0.02434349,-0.0011657734,-0.024114855,-0.00737768,0.043230534,6.373154E-4,0
1774611443250,0.30152854,-0.21527052,0.058772564,-0.0118409265,-0.024231432,-0.055723965,0.14071506,0.0038325302,0
1774611443270,0.29156324,-0.17420673,0.07232857,-0.016104326,-0.047280435,-0.083319485,0.12058854,0.009436926,0
1774611443292,0.108504266,-0.1788063,0.14846134,0.00174866,-0.0633348,-0.06296841,0.06578564,0.007979376,0
1774611443319,-0.044180036,-0.15494967,0.12323475,0.016170941,-0.062368874,-0.024031585,0.041148078,0.004728893,0
1774611443333,0.15429968,-0.14859867,-0.002523899,0.006644908,-0.046814125,-0.034456927,0.045896325,0.0034229967,0
1774611443352,0.41962814,-0.153831,-0.025479794,-0.020084608,-0.070096284,-0.09659265,0.20040098,0.014647021,0
1774611443369,0.5017841,-0.13042879,0.0016946793,-0.03603905,-0.08741634,-0.1623256,0.2688018,0.035290033,0
1774611443389,0.35526854,-0.13116169,0.08227539,-0.027079249,-0.08481834,-0.18239357,0.15018837,0.04119485,0
1774611443413,0.08430904,-0.13483,0.07671404,-0.016537327,-0.049828485,-0.14763686,0.031172186,0.024553003,0
1774611443437,0.06411931,-0.15342999,-0.13081598,-0.033624236,-0.018752297,-0.12743568,0.04476487,0.01772209,0
1774611443451,0.2349018,-0.12546778,-0.18096685,-0.034440275,-0.019435108,-0.15478139,0.103670016,0.025521133,0
1774611443474,0.4163893,-0.13540983,-0.11497402,-0.022749234,-0.10425344,-0.21017228,0.20493488,0.055558696,0
1774611443493,0.3725117,-0.111814976,-0.10855389,-0.030942956,-0.15816213,-0.2469108,0.16305152,0.086937666,0
1774611443516,0.31848833,-0.0981164,-0.20613956,-0.05995406,-0.1174933,-0.26154956,0.15355517,0.08580734,0
1774611443533,0.29291838,-0.12135029,-0.10971403,-0.07967228,-0.056290198,-0.2680779,0.112564236,0.08138202,0
1774611443550,0.2868194,-0.094670296,0.06309891,-0.07101225,-0.021450229,-0.27717093,0.09520931,0.08232657,0
1774611443571,0.25286883,-0.085896015,0.28723478,-0.043383423,-0.05612366,-0.280102,0.1538246,0.08348913,0
1774611443591,0.27936617,-0.121237755,0.38096094,-0.0026812786,-0.10646842,-0.28115124,0.2378753,0.09038873,0
1774611443617,0.24110448,-0.13750839,0.41424417,0.040885337,-0.1417747,-0.27040946,0.24863817,0.09489296,0
1774611443631,0.12828985,-0.13622236,0.29726028,0.045698315,-0.12800191,-0.24371324,0.12337849,0.07786897,0
1774611443652,0.16098025,-0.1570139,0.11163616,0.005812213,-0.094277754,-0.21969831,0.06303064,0.057189424,0
1774611443672,0.3317259,-0.16980886,0.19074106,0.007710758,-0.06849751,-0.22242956,0.17525928,0.054226276,0
1774611443691,0.38329223,-0.14393187,0.45729494,0.08914835,-0.07815678,-0.23482005,0.37674797,0.069196366,0
1774611443709,0.24695137,-0.18730211,0.3870864,0.13952641,-0.13619563,-0.21678388,0.24590293,0.08501212,0
1774611443733,0.076470315,-0.20677137,-0.07254219,0.08739969,-0.18515812,-0.18122779,0.05386448,0.07476574,0
1774611443750,0.15336195,-0.21645164,-0.31878185,0.028311638,-0.15273297,-0.16817114,0.17199308,0.05241044,0
1774611443773,0.35867038,-0.25218105,-0.18208408,0.015171708,-0.15381546,-0.1934351,0.22539434,0.061306518,0
1774611443791,0.3635835,-0.20171452,0.03761196,0.0077940277,-0.19631623,-0.20859016,0.17429638,0.082110666,0
1774611443809,0.314823,-0.15631008,0.18577623,0.009709227,-0.19538361,-0.21376953,0.15805918,0.083966434,0
1774611443836,0.29229122,-0.202034,0.22820997,0.026030052,-0.185308,-0.2111382,0.1783317,0.07959595,0
1774611443850,0.25678548,-0.25966692,0.1883564,0.021683384,-0.1889885,-0.20672493,0.16884382,0.07892202,0
1774611443870,0.28089422,-0.28755617,0.11082506,0.0016653904,-0.17841329,-0.19751531,0.1738723,0.07084638,0
1774611443890,0.3189699,-0.25666285,0.1328373,0.0075941808,-0.1814776,-0.19196956,0.18526337,0.069844104,0
1774611443910,0.32062966,-0.24961853,0.22783947,0.022282925,-0.22352871,-0.1863905,0.21702361,0.08520304,0
1774611443932,0.33383477,-0.2236805,0.22470999,0.019801494,-0.24088208,-0.18733978,0.21197319,0.093512475,0
1774611443947,0.38049045,-0.19687939,0.14326334,-9.159648E-4,-0.204893,-0.19836466,0.20405887,0.081330515,0
1774611443972,0.4256031,-0.22816849,0.12130213,-0.0146387825,-0.17709762,-0.21033882,0.24791306,0.07582028,0
1774611443989,0.3138064,-0.22961998,0.20511389,0.00349732,-0.20077948,-0.19734877,0.19327152,0.07927117,0
1774611444019,0.104513764,-0.2029252,0.23052979,0.032425154,-0.22739242,-0.15426512,0.105245754,0.07655643,0
1774611444031,0.006699294,-0.22021389,0.106116295,0.043516655,-0.24746037,-0.10635184,0.05979971,0.074441046,0
1774611444050,0.26007786,-0.27027464,-0.02412939,0.03822071,-0.23924999,-0.113979325,0.14127111,0.07169267,0
1774611444069,0.5345566,-0.2544031,-0.08850336,0.023265505,-0.22207981,-0.17008632,0.3583046,0.07879008,0
1774611444089,0.51162,-0.20600367,-0.1459918,-0.010208843,-0.2130534,-0.20910643,0.32550615,0.08922147,0
1774611444108,0.2082485,-0.16006947,-0.15832806,-0.026296515,-0.21798296,-0.19206949,0.09405744,0.085098766,0
1774611444135,-0.046931893,-0.18751764,0.008168697,-0.013589586,-0.24624464,-0.13882695,0.037432197,0.080094025,0
1774611444146,-0.060441434,-0.18045568,0.030128479,0.0021816615,-0.2290245,-0.09792496,0.037125148,0.062046282,0
1774611444170,0.21931289,-0.2161169,-0.07555771,-0.0026812786,-0.22521076,-0.11522837,0.10051363,0.06400465,0
1774611444188,0.5277357,-0.2598524,-0.07352924,-0.019385146,-0.23342113,-0.17606509,0.3514348,0.085860126,0
1774611444209,0.55502754,-0.21172094,-0.04116869,-0.020484302,-0.18592419,-0.22702603,0.3545762,0.08652823,0
1774611444238,0.28788155,-0.17749453,-0.067801476,-0.022099731,-0.11532829,-0.22900784,0.11897713,0.066233605,0
1774611444245,-0.11004992,-0.09580135,-0.118644714,-0.03573928,-0.09259571,-0.17126876,0.03536545,0.03918425,0
1774611444266,-0.3214611,0.06619167,-0.090605736,-0.036172282,-0.08150421,-0.09492726,0.11592798,0.016962554,0
1774611444285,-0.13403681,0.19501877,0.014003277,-0.009959035,-0.058288667,-0.066932045,0.056194276,0.007976649,0
1774611444308,0.19560528,0.2994671,0.035265446,0.010092266,-0.0810379,-0.102771245,0.12918562,0.017230924,0
1774611444333,0.34677184,0.33476734,-0.031955242,-0.022749234,-0.10417017,-0.14787002,0.23334102,0.033234496,0
1774611444348,0.37513405,0.33847952,-0.11803055,-0.07852316,-0.053592265,-0.16853751,0.26922515,0.03744291,0
1774611444368,0.3214285,0.32384634,0.11067104,-0.06103656,0.01978484,-0.17071918,0.22044082,0.03326194,0
1774611444386,0.25533208,0.28113317,0.46472454,0.012890122,0.033024695,-0.17033614,0.3601992,0.030271187,0
1774611444408,0.10266641,0.25270367,0.44557476,0.06604939,0.0011990812,-0.14915237,0.2729364,0.02661039,0
1774611444437,-0.002897203,0.21368694,0.21942139,0.07923928,-0.020634187,-0.118359305,0.09381625,0.020713558,0
1774611444446,-0.014611572,0.14628363,0.011263847,0.06989644,0.0081104515,-0.09401129,0.021739272,0.0137894135,0
1774611444465,0.0024177432,0.0844965,-0.17891073,0.052626338,0.04499885,-0.07580858,0.039154552,0.010541368,0
1774611444485,0.018122315,0.02485323,-0.23865223,0.033707503,0.017852986,-0.050294794,0.057900988,0.0039844913,0
1774611444507,0.030973613,-0.015913486,-0.20316553,0.01756987,-0.029710567,-0.03117611,0.042488836,0.002163368,0
1774611444536,0.055422902,-0.048092842,-0.16103697,0.012573699,-0.029710567,-0.0055457503,0.031317525,0.001071571,0
1774611444547,0.043814093,-0.13464117,-0.16011238,0.008709992,-0.018369257,0.02636313,0.04568389,0.0011083082,0
1774611444567,0.09526394,-0.17048073,-0.17244148,-0.013756125,-0.013539624,0.05604039,0.06787496,0.0035130777,0
1774611444585,0.15228848,-0.11926556,-0.09895468,-0.034173813,-0.046164624,0.067148544,0.047208086,0.007807949,0
1774611444609,0.21454342,-0.113072395,0.026320934,-0.025014166,-0.04090199,0.07252776,0.05950704,0.0075589567,0
1774611444636,0.26591456,-0.15054035,0.08585787,-0.010891654,-0.028777948,0.081304364,0.10074453,0.007557198,0
1774611444647,0.27126357,-0.13808346,0.07054186,-0.012806852,-0.021083843,0.08588418,0.09762712,0.007984637,0
1774611444667,0.29907772,-0.07727051,0.05221653,-0.013756125,-0.009492726,0.076991,0.098144785,0.0062069567,0
1774611444688,0.32083842,-0.053910255,0.06200695,-0.0056789815,0.0054791346,0.060287137,0.109688476,0.0036968105,0
1774611444704,0.36396655,-0.065675735,0.026755333,-0.0053625572,0.014772014,0.040918645,0.13750081,0.0019213049,0
1774611444730,0.30882365,-0.028691769,-0.055943966,-0.024697741,-0.0015654671,0.023831738,0.09932499,0.0011803808,0
1774611444750,0.2970818,-0.015488625,-0.03373909,-0.043549962,0.011341309,3.49732E-4,0.08963582,0.0020253467,0
1774611444766,0.31470132,0.007153988,0.025708675,-0.043816425,0.06360126,-0.023765123,0.09974903,0.0065297806,0
1774611444786,0.22723494,-0.019248009,0.13032007,-0.024014931,0.06996305,-0.01991807,0.06898953,0.005868275,0
1774611444803,0.05218774,-0.026200294,0.18835735,-0.0062119067,0.018385911,0.0048129787,0.038888507,3.9979428E-4,0
1774611444824,0.003592223,-0.03421116,0.16176891,-0.009309533,-0.0044632466,0.024631126,0.027352488,7.132803E-4,0
1774611444850,0.13936013,-0.038544655,0.15422058,-0.026096668,0.050977603,0.02503082,0.044690922,0.003906294,0
1774611444865,0.21798795,-0.03998804,0.24473572,0.0010325421,0.09501053,0.017919602,0.10901336,0.009349179,0
1774611444886,0.21480043,-0.07796669,0.35943413,0.034956545,0.09777507,0.016537327,0.18141092,0.011055408,0
1774611444908,0.12183684,-0.08253336,0.26466703,0.044965543,0.03672186,0.041018568,0.09170461,0.0050529176,0
1774611444936,0.032940954,-0.10031128,0.2318263,0.074226454,0.011890888,0.06533327,0.0648909,0.009919396,0
1774611444945,0.121377066,-0.17498827,0.043209076,0.081087865,0.022632657,0.06913036,0.047220312,0.011866486,0
1774611444965,0.1686824,-0.19099426,-0.22020483,0.048263017,0.015704632,0.05562404,0.11342273,0.005669988,0
1774611444986,0.16296001,-0.24740314,-0.33090544,-0.009259571,-0.021566806,0.03663859,0.19726269,0.0018932532,0
1774611445004,0.044811875,-0.27678347,-0.29949188,-0.06571631,-0.0044299387,0.041135143,0.16831258,0.006030358,0
1774611445026,-0.08718291,-0.34807587,-0.091174126,-0.0825201,0.054491576,0.07829001,0.13707039,0.015908223,0
1774611445049,-0.10689494,-0.38945293,0.21833944,-0.04593147,0.06989644,0.12650307,0.21077222,0.022998238,0
1774611445066,-0.06523478,-0.3692479,0.3712945,0.016071018,0.017353369,0.16212577,0.2784592,0.026844181,0
1774611445089,-0.0095986575,-0.34843016,0.19508743,0.019285223,-0.04623124,0.17816347,0.15955481,0.03425147,0
1774611445104,0.16243449,-0.3088522,-0.20785522,-0.05470808,-0.017536562,0.16735509,0.16497844,0.031308234,0
1774611445122,0.271606,-0.19061708,-0.36566448,-0.11832599,0.062801875,0.1448057,0.24381521,0.03891381,0
1774611445142,0.35333,-0.15571451,-0.1916089,-0.12806852,0.057689127,0.11299674,0.18580306,0.032497846,0
1774611445168,0.40017396,-0.1330967,-0.019869328,-0.12766883,0.0107251145,0.081304364,0.17824872,0.023024756,0
1774611445181,0.34779415,-0.08692503,0.009937763,-0.13298143,-0.02060088,0.057572547,0.12861548,0.021423055,0
1774611445202,0.27786243,-0.06747055,0.03210354,-0.13637882,0.017936256,0.04303369,0.08279044,0.02077279,0
1774611445224,0.29298174,-0.052628517,-0.0019078255,-0.16140965,0.08160413,0.026762825,0.08861171,0.03342856,0
1774611445254,0.33493444,-0.044038773,0.06039667,-0.16202584,0.086616956,0.00737768,0.11776826,0.0338093,0
1774611445263,0.25717735,0.019783974,0.3044057,-0.11357963,0.05317592,0.00418013,0.15919442,0.015745485,0
1774611445282,0.14832598,0.01787138,0.3678031,-0.06934686,1.8319295E-4,0.031692382,0.1575991,0.0058134277,0
1774611445303,0.1277883,0.016373634,0.28692436,-0.049245596,-0.041434914,0.050444677,0.09892354,0.0066866465,0
1774611445321,0.2858658,0.028101444,0.26092243,-0.019151991,-0.03642209,0.03472339,0.15058947,0.002899081,0
1774611445341,0.34145945,0.029540539,0.24328709,0.008560107,-0.023482006,0.015088438,0.17665581,8.5234095E-4,0
1774611445368,0.30134994,0.00630188,0.09778023,0.008876531,-0.015121746,0.005812213,0.100412466,3.412418E-4,0
1774611445384,0.17767198,0.018870354,-0.028512001,-0.0014821975,-0.029527374,0.007993874,0.032736357,9.379647E-4,0
1774611445404,0.069582716,0.038537025,-0.09379053,-0.017203484,-0.04716386,0.010275459,0.01512352,0.0026259744,0
1774611445425,0.05987589,0.047795773,-0.08866978,-0.04131834,-0.04822971,0.0107251145,0.013731888,0.004148338,0
1774611445442,0.17825033,0.012300491,0.06798315,-0.0264464,-0.033241194,-0.0016986983,0.036546193,0.0018072746,0
1774611445467,0.22989932,4.4631958E-4,0.24109793,0.017586524,-0.02541386,-0.019451762,0.110982105,0.0013335212,0
1774611445482,0.1285632,-0.021289349,0.14334297,0.040035985,-0.02333212,-0.017852986,0.03752894,0.0024659971,0
1774611445500,0.0073879063,-0.0756526,-0.1488328,0.034173813,-0.028128445,0.0060287137,0.0279291,0.0019954043,0
1774611445521,-0.08165853,-0.117652416,-0.4619565,-0.006811447,-0.051843606,0.027828675,0.23391402,0.0035085902,0
1774611445541,-0.12229885,-0.04308319,-0.6710181,-0.08092132,-0.091346666,0.039169986,0.46707848,0.01642676,0
1774611445571,0.05780531,-0.032005787,-0.5213599,-0.13697837,-0.08726646,0.013023353,0.276182,0.026548116,0
1774611445580,0.31828785,-0.06419706,-0.21487093,-0.14688744,-0.057822358,-0.039519716,0.15159793,0.026481152,0
1774611445601,0.3879869,-0.08788729,0.16333675,-0.13777776,-0.048046514,-0.07664127,0.18493691,0.027165063,0
1774611445623,0.27229694,-0.078205585,0.48501062,-0.09159648,-0.0010991577,-0.08290314,0.31549704,0.015264053,0
1774611445640,0.09991646,-0.086221695,0.6445317,-0.004413285,0.024397971,-0.052509762,0.43283865,0.0033720133,0
1774611445664,-0.04148826,-0.1467166,0.57864666,0.043100305,-0.011674387,-0.005562404,0.358079,0.002024868,0
1774611445683,-0.08893389,-0.08385801,0.24915934,0.025563745,-0.047496937,0.018202718,0.07702178,0.003240803,0
1774611445702,0.018810429,-0.051472187,0.048948288,-9.825804E-4,-0.03515639,0.010425344,0.005399153,0.0013456251,0
1774611445725,0.12843874,-0.08987427,0.0902462,0.0013156584,-0.015155054,-0.0040968605,0.03271827,2.481909E-4,0
1774611445754,0.1282406,-0.119151115,0.1993804,0.0068614087,0.0046464396,-0.0057122894,0.07039519,1.0129859E-4,0
1774611445762,0.052735377,-0.09282255,0.23248196,0.014688744,0.010042304,0.010192189,0.06544491,4.2048778E-4,0
1774611445782,0.009419046,-0.100227356,0.25255394,0.03355762,-0.011674387,0.028494831,0.07391773,0.0020743606,0
1774611445802,0.026019648,-0.10219383,0.23654366,0.05718951,-0.027845329,0.04376646,0.0670735,0.0059615057,0
1774611445822,0.11748133,-0.13434601,0.1567359,0.055290964,-0.03557274,0.04035241,0.056416854,0.005950827,0
1774611445843,0.31343046,-0.15067959,0.021775723,0.028628062,0.0033807426,0.0107251145,0.12141718,9.4602344E-4,0
1774611445865,0.38972208,-0.11295366,0.05845213,0.032308575,0.023348775,-0.020883996,0.16805848,0.0020251507,0
1774611445879,0.30632752,-0.12159109,0.0905962,0.048163094,3.9969373E-4,-0.03459016,0.11682862,0.0035163225,0
1774611445902,0.111234486,-0.11722517,-0.014360428,0.03948641,-0.0064950227,-0.010208843,0.026321074,0.0017055823,0
1774611445922,0.03869669,-0.12684965,-0.18637466,0.015771247,-0.0074776034,0.0151883615,0.052323785,5.353331E-4,0
1774611445942,0.10567152,-0.10052109,-0.19224834,-0.002298239,-0.009192956,0.009259571,0.058230385,1.75532E-4,0
1774611445967,0.25017044,-0.08881378,-0.15653849,-0.021633422,-0.009076378,-0.023898354,0.09497743,0.0011215169,0
1774611445978,0.25642538,-0.06333494,-0.07527399,-0.03215869,-0.0023148928,-0.0462812,0.075431466,0.0031814897,0
1774611446002,0.10911578,-0.0676651,-0.011921883,-0.03065984,6.4950227E-4,-0.032291923,0.01662695,0.0019832158,0
1774611446019,-0.04333196,-0.078612804,0.06943321,-0.016520673,-0.006378446,-4.9961713E-4,0.012878602,3.1386683E-4,0
1774611446041,-0.0122028515,-0.08098745,0.13823748,-0.0048462865,-0.016537327,0.017036945,0.025817476,5.872272E-4,0
1774611446071,0.08791695,-0.061672688,0.17282963,0.015787901,0.004030245,0.010625191,0.041402988,3.783954E-4,0
1774611446081,0.15137821,-0.07677317,0.12131548,0.038137443,0.017436638,-0.0011657734,0.04352693,0.00175986,0
1774611446102,0.042358972,-0.10637045,-0.049672604,0.017469946,-0.0034473583,0.009909074,0.015576323,4.1527307E-4,0
1774611446121,-0.03479227,-0.045690536,-0.22410345,-0.024681088,-0.0118409265,0.025064128,0.053520482,0.0013775742,0
1774611446140,0.08597926,-0.026700497,-0.07121754,-0.03254173,0.014888591,0.009909074,0.013177287,0.001378824,0
1774611446169,0.18867922,-0.03307247,0.087397575,-0.00920961,0.024697741,-0.014105857,0.04433197,8.9377054E-4,0
1774611446181,0.10145113,-0.06160736,0.18333006,0.013922664,-0.009476072,-0.010475306,0.047697708,3.9336854E-4,0
1774611446201,0.008507863,-0.09170771,0.14903021,0.015554748,-0.019751532,0.0133397775,0.030692691,8.100229E-4,0
1774611446218,0.052882902,-0.09951544,0.08324385,0.018785605,0.03668855,0.023215543,0.019629462,0.0022379102,0
1774611446241,0.11904906,-0.1375575,0.069666386,0.033890698,0.06801455,0.019934723,0.03794815,0.0061719506,0
1774611446269,0.04077995,-0.16265297,-0.0837903,0.037587862,0.019385146,0.03104288,0.03513981,0.0027522917,0
1774611446282,-0.08137824,-0.17337179,-0.27349043,0.003147588,-0.04824636,0.053758804,0.11147721,0.0052276277,0
1774611446300,0.005719073,-0.19306183,-0.40231085,-0.023898354,-0.030626532,0.05753924,0.19915959,0.00481988,0
1774611446322,0.121241555,-0.22185516,-0.33900452,-0.02328216,-0.020617533,0.05037806,0.17884329,0.0035050907,0
1774611446342,0.19716938,-0.24057245,-0.32554722,-0.045565084,-0.039036755,0.04251742,0.20273186,0.005407776,0
1774611446358,0.21457854,-0.18180704,-0.30999947,-0.08042171,-0.0802052,0.028594755,0.17519742,0.013718186,0
1774611446378,0.3314999,-0.15690088,-0.20755243,-0.11111485,-0.06711524,-0.0028977795,0.17758808,0.016859364,0
1774611446397,0.42255616,-0.13642883,0.034627438,-0.124354705,-0.019968031,-0.038070828,0.19836561,0.017312203,0
1774611446418,0.42059577,-0.12646914,0.31668377,-0.103737175,0.017170176,-0.055540774,0.29318386,0.014140994,0
1774611446438,0.24552749,-0.09805155,0.50426054,-0.06573296,0.023432044,-0.035472818,0.32417655,0.006128204,0
1774611446457,0.109777324,-0.07762241,0.44584417,-0.039686255,0.032142036,2.1650076E-4,0.21685332,0.002608156,0
1774611446481,0.16000465,-0.08042288,0.3184042,-0.01398928,0.00950938,0.014788668,0.13345057,5.0483295E-4,0
1774611446496,0.29494345,-0.060376167,0.26713228,-0.0025647013,-0.029327527,-0.010741768,0.16199657,9.820671E-4,0
1774611446517,0.33420327,-0.019756317,0.08070278,-0.032308575,-0.055374235,-0.040485643,0.11859508,0.0057492373,0
1774611446537,0.31166154,-0.028831005,0.12214947,-0.047563553,-0.023382083,-0.053092647,0.11288463,0.0056278426,0
1774611446556,0.18733886,0.013695717,0.29628706,-0.010008996,0.031242726,-0.042117726,0.123069435,0.0028501907,0
1774611446584,0.08258359,-0.0099692345,0.35394716,0.031975497,0.02128369,-0.021783307,0.13219802,0.0019499402,0
1774611446598,0.047604218,-0.022165298,0.21019983,0.037421323,-0.036655243,-0.011058193,0.046941433,0.0028662458,0
1774611446619,0.10185266,-0.012445927,0.047442913,0.024514548,-0.05625689,-0.027662136,0.012779696,0.0045309947,0
1774611446638,0.20227413,-0.049139023,-0.035535812,0.012307236,0.005978752,-0.04942879,0.04459226,0.0026304189,0
1774611446658,0.12596558,-0.08012581,-0.023203373,0.01663725,0.044249427,-0.04874598,0.022825869,0.00461098,0
1774611446686,0.0129481945,-0.11847162,-0.018044472,0.008010528,0.016170941,-0.032691617,0.014528785,0.0013944097,0
1774611446695,-0.0014812984,-0.11116505,-0.018555164,0.006411753,-0.018119449,-0.01880226,0.012704156,7.2295E-4,0
1774611446719,0.058471337,-0.10348177,0.05416155,0.025164051,0.0019818146,-0.027112557,0.017060846,0.0013722477,0
1774611446735,0.0678868,-0.09696579,0.025782108,0.02951072,0.024031585,-0.030043645,0.0146757,0.0023510202,0
1774611446758,0.031271383,-0.09111881,-0.085986614,0.011308001,0.02997703,-0.03155915,0.016674235,0.0020224731,0
1774611446783,0.02620657,-0.09626055,-0.11264801,-0.018669028,0.018918836,-0.032308575,0.022642452,0.001750299,0
1774611446796,0.020168215,-0.07848978,-0.065849304,-0.026413092,0.029061064,-0.025363898,0.010903534,0.0021855242,0
1774611446820,0.062292404,-0.14601564,0.04592991,0.004529862,0.028561447,-0.010392036,0.027310468,9.4427034E-4,0
1774611446837,0.15929388,-0.18372202,0.103459835,0.021267036,7.9938746E-4,-0.01010892,0.06983226,5.551161E-4,0
1774611446857,0.23201373,-0.090837,-0.02397728,-0.005562404,0.0019651607,-0.032991387,0.06265664,0.0011232338,0
1774611446884,0.24098141,-0.026801586,-0.09619713,-0.037238132,0.046780817,-0.05275957,0.06804425,0.006358695,0
1774611446897,0.18330598,-0.059733868,-0.054187298,-0.039336525,0.043233536,-0.044132847,0.04010548,0.0053642094,0
1774611446917,0.116574235,-0.09000301,0.09691477,-0.012090735,-0.018302642,-0.024631126,0.031082567,0.0010878649,0
1774611446937,0.13394096,-0.08107662,0.13724041,0.009542688,-0.04792994,-0.02273258,0.04334853,0.002905112,0
1774611446959,0.26406762,-0.07088995,-0.015796185,0.0011158116,0.022715926,-0.04210107,0.07500661,0.0022897585,0
1774611446985,0.29683733,-0.10391903,-0.19348669,-0.042967074,0.037654478,-0.055390887,0.13634866,0.0063321795,0
1774611447001,0.23764592,-0.05570841,-0.1003418,-0.06838093,0.0011990812,-0.05634016,0.06964749,0.007851603,0
1774611447014,0.18770257,0.020543098,0.15364027,-0.035805896,-0.03683844,-0.055690657,0.059259605,0.005740582,0
1774611447035,0.19239071,0.0029463768,0.27385664,0.0028977795,-0.026862748,-0.05360892,0.11202033,0.0036039208,0
1774611447057,0.17952004,-0.029332638,0.11484814,-5.4957886E-4,-0.016670559,-0.04641443,0.046277944,0.002432509,0
1774611447089,0.16591284,-0.0408473,-0.004032135,-0.024198124,-0.025363898,-0.04188457,0.02921183,0.0029831938,0
1774611447097,0.24992904,-0.028814793,0.053079605,-0.017336715,-0.020550918,-0.052792877,0.06611226,0.0035099897,0
1774611447117,0.33343148,-0.040488243,0.15953684,0.009909074,-0.03270827,-0.06979652,0.13826784,0.0060395743,0
1774611447137,0.288878,-0.03593397,0.14587688,0.020184532,-0.06701531,-0.07787366,0.106021814,0.010962775,0
1774611447156,0.22583723,-0.036939144,0.03958845,0.009159648,-0.08197052,-0.080721475,0.053934198,0.013319022,0
1774611447178,0.22588131,-0.06477642,0.026611805,-0.0051460564,-0.054491576,-0.08175402,0.05592654,0.009679534,0
1774611447201,0.2635059,-0.07303476,0.027852535,-0.02081738,-0.02175,-0.09124675,0.07554521,0.009232394,0
1774611447214,0.29635376,-0.10472822,0.12138033,-0.010192189,-0.035939127,-0.102321595,0.11352673,0.01186521,0
1774611447234,0.20321442,-0.09221935,0.24692678,0.035705972,-0.06073679,-0.10600211,0.11077335,0.01620032,0
1774611447259,0.13429753,-0.11479616,0.14494228,0.05122741,-0.044116195,-0.1032209,0.052222252,0.015225041,0
1774611447288,0.068250835,-0.11202288,-0.14141369,-0.0051460564,-0.042300917,-0.08988112,0.037205134,0.009894466,0
1774611447299,0.059972942,-0.09607983,-0.14220762,-0.032092076,-0.039503064,-0.089448124,0.033051096,0.010591361,0
1774611447313,0.08627226,-0.113808155,0.081134796,0.0020151224,-0.025946783,-0.08633384,0.026978053,0.008130828,0
1774611447336,0.034837537,-0.16957521,0.13692045,0.03087634,-0.04243415,-0.07007963,0.04871662,0.00766516,0
1774611447355,-0.06124963,-0.17777205,0.011536598,0.0060786754,-0.05562404,-0.04839625,0.03548751,0.005473181,0
1774611447376,-0.032785505,-0.15970564,-0.12666702,-0.029160988,-0.01680379,-0.04391635,0.042625315,0.003061376,0
1774611447407,-0.007738933,-0.124917984,-0.042763233,-0.03189223,0.031975497,-0.05022818,0.017493088,0.0045624166,0
1774611447416,1.0718405E-4,-0.11771345,0.0055332184,-0.02912768,0.015404862,-0.050861027,0.013887084,0.0036725756,0
1774611447437,-0.06640451,-0.069784164,0.08969355,-0.006961332,-0.006778139,-0.035639357,0.017324321,0.0013645671,0
1774611447452,-0.05840212,-0.037292004,0.06513929,0.022932427,0.01360624,-0.014422282,0.009044629,9.190282E-4,0
1774611447472,0.006490305,-0.010753632,-0.12667847,0.005595712,0.015321593,-0.0044465926,0.016205197,2.8583538E-4,0
1774611447495,0.1058853,0.027179718,-0.35441685,-0.0392366,-0.019718224,-0.025313936,0.13756174,0.0025691146,0
1774611447521,0.22091675,0.02013731,-0.33657122,-0.08291979,-0.04951206,-0.061952528,0.1624899,0.013165251,0
1774611447535,0.26467592,-0.0035767555,-0.175107,-0.08736639,-0.02524732,-0.092046134,0.100728594,0.016742803,0
1774611447556,0.11647594,-0.009745598,0.03292036,-0.05489127,0.006644908,-0.0876495,0.014745371,0.010739641,0
1774611447573,-0.044768766,-0.019656658,0.080553055,-0.038603753,-0.00836026,-0.05242649,0.008879421,0.0043086805,0
1774611447593,-0.1348997,0.004848957,0.12238836,-0.008993109,-0.06400096,-0.024531202,0.033200353,0.004778778,0
1774611447620,-0.013395444,-0.010682106,0.09410524,0.013123277,-0.070446014,-0.03237519,0.009149343,0.006183014,0
1774611447634,0.07274352,0.0018553734,-0.13240623,-0.027545558,-0.04434935,-0.04904575,0.022826474,0.005131108,0
1774611447655,0.12367731,-0.0019431114,-0.2372365,-0.07031278,-0.008426876,-0.06390103,0.07158101,0.009098241,0
1774611447673,0.11385011,-0.009703159,-0.056701183,-0.06027048,-0.0023648546,-0.070579246,0.016271023,0.008619553,0
1774611447692,0.015461445,-0.019305706,0.059720516,-0.02150019,-0.033191234,-0.05625689,0.0041783066,0.004728754,0
1774611447717,-0.061026886,-0.06781149,0.008316994,-0.012340544,-0.08431872,-0.029610643,0.008391851,0.0081387255,0
1774611447734,-0.011891633,-0.038484573,-0.14230776,-0.06370118,-0.089831166,-0.02972722,0.021873971,0.013011186,0
1774611447756,0.20692098,0.008817673,-0.14873219,-0.0910802,0.002281585,-0.0688972,0.06501531,0.013047634,0
1774611447771,0.22395018,0.010074139,0.11997604,-0.043933,0.024980858,-0.09152986,0.06464942,0.010931866,0
1774611447794,-0.039258152,0.038142204,0.2522602,4.163476E-4,-0.044199463,-0.0590714,0.06663124,0.0054431963,0
1774611447820,-0.2534838,0.09035444,0.09790802,-0.01688706,-0.09567668,-0.011907542,0.082003936,0.009580989,0
1774611447834,-0.12490314,0.11266661,-0.045372963,-0.037854325,-0.04281719,-0.008127105,0.030353265,0.0033323115,0
1774611447853,0.12038088,0.05332184,0.070669174,-0.028628062,0.010342075,-0.042750575,0.022328906,0.002754136,0
1774611447871,0.06848817,0.06650305,0.15593815,0.0017153522,0.007361026,-0.053575613,0.03342999,0.0029274733,0
1774611447890,-0.103124246,0.05119276,0.14299488,0.017919602,-0.042317573,-0.034989852,0.033702843,0.003336179,0
1774611447921,-0.2019262,0.06251907,0.07337856,0.019285223,-0.051110834,-0.0060620215,0.05006724,0.0030209853,0
1774611447930,-0.14588274,0.027512074,-0.0010557175,0.023298813,-0.0036472052,0.004046899,0.0220398,5.7251414E-4,0
1774611447951,-0.017565474,-0.021794796,-0.033815384,0.02997703,0.015304939,-0.0011657734,0.0019270391,0.0011342225,0
1774611447972,0.027628064,-0.03422022,-0.020772934,0.022765888,-0.0107251145,-0.01991807,0.002365848,0.0010300432,0
1774611447993,-0.02800624,0.032118797,-0.05039215,0.016470712,-0.014272396,-0.030626532,0.0043553356,0.00141297,0
1774611448020,-0.15958902,0.022529125,-0.08007383,-0.002281585,0.014955207,-0.0051793642,0.03238804,2.5568964E-4,0
1774611448033,-0.23908232,-0.0012431145,-0.09616327,-0.012057427,0.0238817,0.027828675,0.066409275,0.0014901522,0
1774611448051,-0.09429306,-0.08165121,0.10816097,0.015704632,0.013722817,0.031375956,0.027256899,0.0014194017,0
1774611448073,-0.026586011,-0.054080963,0.15272284,0.036921706,-0.0025813552,0.020234494,0.026955832,0.0017793104,0
1774611448099,-0.0035342425,-0.08635044,0.07734251,0.026696209,0.010258805,0.012873468,0.013450753,9.836568E-4,0
1774611448112,-0.05760953,-0.090121746,0.022276878,0.018186064,0.041051876,0.026662901,0.011937046,0.0027269,0
1774611448132,-0.13294616,-0.08197498,0.09127188,0.040785413,0.041867916,0.046297856,0.032725137,0.0055598635,0
1774611448152,-0.09508972,-0.104561806,0.07563448,0.06476703,0.013023353,0.044449273,0.0256958,0.0063401144,0
1774611448172,-0.002941087,-0.16971302,-0.10706663,0.04844621,0.0014655436,0.040668834,0.040274423,0.004003137,0
1774611448193,-0.05224082,-0.13687754,-0.34179258,-0.009542688,0.020167878,0.041851263,0.13828674,0.0022493345,0
1774611448222,-0.0666866,-0.11692238,-0.39343357,-0.06476703,0.043982964,0.045864854,0.17290792,0.008232854,0
1774611448230,0.02912125,-0.11992931,-0.14323473,-0.06956336,0.033107962,0.037854325,0.035747275,0.0073681483,0
1774611448253,0.07318592,-0.1030364,0.11183262,-0.03578924,-5.1627104E-4,0.024847627,0.028479215,0.0018985409,0
1774611448272,0.066559784,-0.11541414,0.14433193,-0.041551493,0.0030476646,0.022399502,0.038582332,0.0022375525,0
1774611448292,0.008889645,-0.11027098,0.032554626,-0.06686543,0.023848392,0.040585566,0.013298517,0.00668692,0
1774611448321,-0.009657547,-0.10326195,0.21359634,-0.02874464,0.03155915,0.056440085,0.0563797,0.0050077178,0
1774611448333,-0.030881181,-0.11749935,0.27125168,0.0112746935,0.010575229,0.07382676,0.08833721,0.0056893444,0
1774611448349,-0.04763618,-0.07748318,0.086066246,-5.1627104E-4,-0.016104326,0.08711658,0.015680248,0.007848914,0
1774611448371,0.08152021,-0.06538916,-0.03954315,-0.014588821,-0.0055290964,0.07832331,0.012484947,0.0063779457,0
1774611448391,0.18898156,-0.041241646,-0.011684418,-0.016137633,0.010675153,0.053242534,0.03755143,0.0032091497,0
1774611448417,0.1720212,-0.026667118,-0.008489609,-0.015471478,0.02614663,0.037554555,0.0303745,0.0023333575,0
1774611448431,0.056417137,-0.020754337,0.0091667175,-0.0028644716,0.014655436,0.042617343,0.0036976647,0.0020392248,0
1774611448451,-0.06304222,-0.03192711,-0.031665802,0.0019485069,-0.0046297857,0.059587672,0.005996385,0.0035759222,0
1774611448472,-0.07213724,-0.055167675,-0.07330704,-0.013040007,-0.014655436,0.06723181,0.013621174,0.00490494,0
1774611448491,-0.041482396,-0.064013004,-0.0804081,-0.03087634,0.011691041,0.070595905,0.012283916,0.0060738106,0
1774611448520,-0.019206874,-0.071870804,0.11953735,-0.007011294,0.030393377,0.067148544,0.019823495,0.0054818424,0
1774611448531,0.078664936,-0.10037613,0.30244923,0.029377488,0.020650841,0.06060356,0.10773907,0.0049622855,0
1774611448551,0.07345353,-0.046693325,0.22076797,0.03237519,0.025863513,0.06052029,0.056314185,0.00537978,0
1774611448572,0.031021595,-0.05668068,-0.011731148,0.012673622,0.051710375,0.07409322,0.0043126587,0.008324389,0
1774611448591,0.02467221,-0.07377815,-0.07904196,0.010058958,0.04611466,0.08035509,0.012299566,0.008684685,0
1774611448615,0.08480758,-0.07281017,-0.096039295,0.015471478,0.037288092,0.07514242,0.021717194,0.007276152,0
1774611448637,0.059006054,-0.020059109,-0.16294193,-0.004413285,0.018236026,0.08007197,0.030434156,0.00676355,0
1774611448652,0.013139561,0.007689953,-0.2638297,-0.04483231,0.0071112174,0.08621726,0.0698379,0.009493922,0
1774611448668,0.06699388,-0.0016880035,-0.18369865,-0.0678147,0.024431279,0.09244583,0.038236223,0.013741952,0
1774611448690,0.13581324,-0.034481525,-2.746582E-4,-0.06306834,0.030976264,0.09424445,0.019634284,0.013819162,0
1774611448718,0.1976167,-0.041923523,0.12928009,-0.056523353,0.03325785,0.09351168,0.05752328,0.013045408,0
1774611448731,0.23284738,-0.017054558,0.26233196,-0.034107197,0.03177565,0.087433,0.123326816,0.009817523,0
1774611448748,0.16349208,0.008330822,0.3361845,-3.8303982E-4,0.027195826,0.09364491,0.13981909,0.0095091285,0
1774611448770,0.07459712,0.015055656,0.28237152,0.020800726,0.054058574,0.12145693,0.08552508,0.018106785,0
1774611448789,0.05401307,0.022475243,0.13010311,0.020917304,0.0590714,0.15559743,0.020349368,0.028137526,0
1774611448809,0.17083395,0.051705837,0.07674694,0.03295808,0.037654478,0.15301608,0.037747823,0.025918014,0
1774611448836,0.39453644,0.051965714,0.09587574,0.047080588,0.03185892,0.106684916,0.16755159,0.014613243,0
1774611448849,0.41726547,0.08034706,-0.024453163,0.025430514,0.045665007,0.075075805,0.18116407,0.00836838,0
1774611448869,0.2126932,0.08879995,-0.12734604,0.003663859,0.05450823,0.08501819,0.06934085,0.010212664,0
1774611448889,0.10209924,0.04908943,-0.053413868,0.009575996,0.025297282,0.10117247,0.015687067,0.010967521,0
1774611448909,0.21014883,7.390976E-4,0.08742714,0.029027756,-8.9931086E-4,0.08398564,0.051806584,0.007897007,0
1774611448939,0.3079905,-0.029222012,0.119932175,0.03595578,0.009176302,0.052942764,0.11009579,0.004179959,0
1774611448949,0.27019802,-0.07787752,0.022651672,0.011208078,0.056989662,0.04609801,0.07958497,0.005498469,0
1774611448967,0.18431677,-0.10159063,0.04175377,-0.0028644716,0.06674885,0.05748928,0.046036705,0.007768632,0
1774611448986,0.16504012,-0.12742043,0.23344326,0.031992152,0.052992724,0.06335145,0.097969964,0.007845134,0
1774611449009,0.18461554,-0.16509819,0.32380104,0.067864664,0.006428407,0.06898047,0.16618742,0.009405242,0
1774611449041,0.1270903,-0.18741608,0.19623089,0.075542115,-0.017236792,0.083219565,0.089783296,0.012929214,0
1774611449050,0.12593062,-0.24355459,-5.135536E-4,0.04656432,0.015471478,0.09043071,0.075177625,0.0105853155,0
1774611449068,0.24412355,-0.24042368,-0.0880723,0.013939318,0.057572547,0.07679115,0.12515658,0.009405784,0
1774611449088,0.35918263,-0.24833965,0.05150175,0.008227029,0.037587862,0.04734705,0.19333717,0.0037222747,0
1774611449110,0.3324315,-0.23649693,0.16847372,0.02120042,0.013106623,0.034057237,0.19482489,0.0017811368,0
1774611449135,0.1611186,-0.23682308,0.1771226,0.035422854,0.011824273,0.055074465,0.11341679,0.004427789,0
1774611449147,0.03424047,-0.24715519,0.06371641,0.032192,0.0024314702,0.08866539,0.06631788,0.0089037875,0
1774611449166,0.13583884,-0.2396226,0.053138733,0.030892994,5.995406E-4,0.096059725,0.0786949,0.010182207,0
1774611449187,0.39165434,-0.25718594,0.06531572,0.03872033,0.004529862,0.058538474,0.22380388,0.0049465364,0
1774611449210,0.50714076,-0.2068491,-7.801056E-4,0.035123084,0.015904479,0.012773545,0.29997888,0.0016497469,0
1774611449237,0.3524718,-0.17994213,-0.14304304,0.0038137443,0.0049795173,-0.0010991577,0.17707685,4.0548384E-5,0
1774611449249,0.20554724,-0.15623617,-0.2814803,-0.036955014,-0.0047963248,0.004013591,0.14589056,0.0014047867,0
1774611449269,0.14752251,-0.11869955,-0.20319319,-0.05352565,-0.017969564,0.00592879,0.077139944,0.0032230506,0
1774611449285,0.19052187,-0.11010265,-0.030560493,-0.047913283,-0.0302768,-0.0040968605,0.04935512,0.0032291515,0
1774611449307,0.27042365,-0.12629128,0.09561825,-0.034606814,-0.020467648,-0.022016462,0.09822129,0.0021012807,0
1774611449326,0.26104912,-0.13629866,0.120714664,-0.0153715545,-0.00174866,-0.026279861,0.101296,9.299736E-4,0
1774611449348,0.10503333,-0.12761688,0.13644075,-0.004346669,-0.018136103,-0.010158882,0.045934148,4.5101464E-4,0
1774611449366,-5.444735E-4,-0.09225893,0.046799183,-0.012756892,-0.038154095,0.015071784,0.0107021695,0.0018456319,0
1774611449385,0.055275828,-0.07388115,0.060020447,-0.014105857,-0.022782542,0.01565467,0.012116296,9.630881E-4,0
1774611449410,0.19940391,-0.06199503,0.08975124,-0.002981049,-0.010125574,-0.0066782157,0.051660586,1.5601245E-4,0
1774611449437,0.18654609,-0.050520897,0.14173698,0.012340544,-0.02294908,-0.017136868,0.057441175,9.7262155E-4,0
1774611449448,0.106104165,-0.04731512,0.077745914,0.017852986,-0.042484112,-0.01565467,0.019541241,0.0023686977,0
1774611449467,0.053457484,-0.05480194,0.0019583702,0.0015321593,-0.029094372,-0.013056661,0.0058647906,0.0010193064,0
1774611449490,0.1499761,-0.08406162,-0.075284004,-0.03267496,-0.005812213,-0.030143568,0.03522687,0.0020100696,0
1774611449510,0.18055642,-0.058495045,0.0631485,-0.03139261,0.006445061,-0.045581736,0.040010024,0.0031047296,0
1774611449527,0.06343655,-0.03856182,0.26709127,0.03002699,0.014405628,-0.039253253,0.07684896,0.00264996,0
1774611449548,-0.08172071,-0.092213154,0.22598124,0.060353752,-0.0014155819,-0.0032308574,0.06624906,0.0036550178,0
1774611449568,-0.106951945,-0.06613922,-0.05959463,0.024431279,-0.014422282,0.021067189,0.019364635,0.001248716,0
1774611449587,0.048362017,-0.03802824,-0.14122295,-0.0067281774,-0.013206546,0.0050960947,0.023728956,2.4565143E-4,0
1774611449604,0.16268,-0.04609871,-0.0045285225,-0.0039303214,0.0060620215,-0.021600114,0.028610382,5.1876047E-4,0
1774611449623,0.22718236,-0.08670235,0.091637135,0.008460184,0.035123084,-0.034157157,0.06752649,0.002471917,0
1774611449648,0.093982846,-0.07400274,0.14854574,0.026796132,0.029410796,-0.016304173,0.036375016,0.0018488537,0
1774611449669,-0.02305831,-0.07098007,0.12093115,0.04103522,0.003980283,0.0135229705,0.020194199,0.0018826027,0
1774611449686,-0.017033722,-0.08872938,0.033223152,0.03527297,-0.027628828,0.028494831,0.009266828,0.0028194902,0
1774611449705,0.12983045,-0.113826275,-0.013118744,0.013389739,-0.01885222,0.011024885,0.029984467,6.562394E-4,0
1774611449726,0.22566281,-0.0977788,-0.00937891,0.0069113704,0.029160988,-0.0076607964,0.060572363,9.5681805E-4,0
1774611449755,0.2101027,-0.11796236,0.07664585,0.02319889,0.048512824,-0.016753828,0.06393285,0.0031723734,0
1774611449765,0.11035887,-0.09934044,0.06610441,0.03996937,0.010658499,-0.0038303982,0.026417397,0.0017258261,0
1774611449784,0.057625465,-0.10482788,-0.0092897415,0.02896114,-0.032641653,0.00942611,0.014395878,0.0019930769,0
1774611449807,0.101786755,-0.11191559,-0.16516495,-0.0010658499,-0.00776072,0.011191424,0.050165102,1.8661277E-4,0
1774611449825,0.21065313,-0.13316107,-0.16601133,-0.008976455,0.044332694,-0.005562404,0.089666374,0.0020769048,0
1774611449844,0.1731285,-0.07880783,-0.14647007,-0.019351838,0.03434035,-0.0150051685,0.057637632,0.0017789084,0
1774611449867,0.13157535,-0.038187027,-0.11810446,-0.03655532,-0.009842458,-0.026129976,0.032718986,0.0021159411,0
1774611449885,0.15614542,0.0051603317,0.025289059,-0.021217074,-0.017669793,-0.040319104,0.02504756,0.0023880159,0
1774611449906,0.0975374,-0.022068024,0.108130455,-0.002098392,0.015171708,-0.034357004,0.021692738,0.0014149877,0
1774611449925,-0.025901765,-0.041345596,0.009206295,-0.01292343,0.04533193,-0.0076607964,0.0024651156,0.0022806865,0
1774611449952,-0.03155974,-0.04607582,-0.0191226,-0.008193721,0.035223007,0.006328484,0.0034846722,0.0013478469,0
1774611449965,0.0062369965,-0.02584219,0.06092167,0.0069446783,-0.0039303214,-0.0014655436,0.0044181687,6.5823806E-5,0
1774611449985,0.07736647,-0.016255856,-0.027326584,-0.0037637826,-0.003480666,-0.011707695,0.0069965664,1.6335121E-4,0
1774611450002,0.07122344,-0.021843433,-0.07175398,-0.02030111,0.020201186,-0.013189892,0.010698548,9.941962E-4,0
1774611450023,0.050350353,-0.010500908,-0.030034065,-0.011691041,0.048729327,-0.007344372,0.0035474722,0.0025651676,0
1774611450042,0.0140899755,-0.041960716,0.036628723,-0.008426876,0.027695443,0.007843989,0.0033008924,8.99578E-4,0
1774611450073,0.010348817,-0.0145459175,-0.0057621,-0.018602412,-0.00592879,0.017686447,3.5188353E-4,6.9401076E-4,0
1774611450090,0.11188954,-0.022610664,0.052381516,-0.009692573,-0.0029144334,0.008876531,0.015774334,1.812327E-4,0
1774611450106,0.17235938,-0.038770676,0.095014095,0.004379977,0.03773775,-0.0017320061,0.040238596,0.0014463217,0
1774611450123,0.13688542,-0.048741817,0.021712303,0.0030476646,0.051860258,0.0011657734,0.021584807,0.0027001337,0
1774611450144,0.08515245,-0.04598999,-0.03096056,0.0015155054,0.030376723,0.007910605,0.010324575,9.876197E-4,0
1774611450170,0.069620974,-0.030397892,-0.048491955,-6.3284836E-4,-0.012290582,0.012640314,0.008122581,3.1123645E-4,0
1774611450184,0.089184396,-0.025294304,-0.057584286,-0.01642075,-0.008027182,0.016537327,0.011909608,6.0755986E-4,0
1774611450202,0.20373055,-0.04052353,-0.013987541,-0.015837863,0.05161045,0.010042304,0.043343946,0.0030153245,0
1774611450222,0.27984,-0.047363758,0.10691404,0.013922664,0.07545884,-0.00524598,0.09198436,0.005915397,0
1774611450241,0.2275337,-0.047724724,0.10004568,0.022166347,0.028594755,-0.007544219,0.06405837,0.0013659222,0
1774611450267,0.14703514,-0.02250719,-0.035879612,0.0014155819,-0.016703866,-0.0044299387,0.023413252,3.006474E-4,0
1774611450281,0.2123867,-0.025714397,-0.05246973,-0.023132274,0.016387442,-0.016620597,0.048522413,0.0010798946,0
1774611450304,0.2609854,-0.030350685,0.005741596,-0.013073315,0.06638247,-0.02511409,0.069067515,0.0052082613,0
1774611450321,0.19264503,-0.056504726,0.1108098,0.015987748,0.04959533,-0.016087672,0.052583702,0.0029741179,0
1774611450341,0.12936294,-0.056478977,0.06412649,0.019285223,-0.0074609495,-0.0062285606,0.02403685,4.6638053E-4,0
1774611450371,0.19277982,-0.023854256,-0.007062912,0.015088438,0.0014322358,-0.015238323,0.037782975,4.6191877E-4,0
1774611450381,0.2627725,-0.036088467,-0.029638767,0.013406393,0.0449822,-0.030076953,0.07123022,0.0031077527,0
1774611450405,0.28998888,-0.07906914,-0.08872652,-0.0043133614,0.053425726,-0.031292688,0.098217875,0.0038521455,0
1774611450423,0.22021812,-0.034872055,-0.061697483,-0.001931853,0.037970904,-0.031492535,0.053518664,0.0024373014,0
1774611450440,0.16329762,-0.0154566765,-0.044573784,0.0070612556,0.020617533,-0.03322454,0.028891845,0.0015788142,0
1774611450466,0.1436433,-0.02346325,-0.12817574,-0.011357963,0.011907542,-0.03267496,0.037612945,0.0013384459,0
1774611450480,0.11044415,-0.015825748,-0.121543884,-0.032991387,0.011441233,-0.022782542,0.027221281,0.0017383776,0
1774611450500,0.14563325,5.1641464E-4,0.0294981,-0.022699272,0.027345711,-0.015937787,0.02207945,0.0015170579,0
1774611450522,0.20334755,-0.0356493,0.13081598,-0.004896248,0.032192,-0.014388974,0.05973392,0.0012673406,0
1774611450540,0.22190344,-0.045543194,0.13346148,5.4957886E-4,0.018136103,-0.011874234,0.069127284,4.702177E-4,0
1774611450563,0.21651262,-0.05808544,0.12056589,-0.0033640887,0.0078106816,-0.01079173,0.06478777,1.8878528E-4,0
1774611450582,0.25072137,-0.072761536,0.09077263,-0.0072944104,0.038653713,-0.012307236,0.07639512,0.001698786,0
1774611450604,0.28513992,-0.055488586,0.14402628,0.013656202,0.083785795,-0.016087672,0.10512733,0.0074653644,0
1774611450623,0.23157349,-0.04552126,0.13927794,0.04333346,0.05024483,-0.01194085,0.075096816,0.004544916,0
1774611450643,0.10356733,-0.008627415,0.013132572,0.025713628,-0.026896056,0.0030809725,0.010973088,0.0013940808,0
1774611450669,0.17498706,0.020271301,-0.14340067,-0.014938553,-0.02503082,-0.0035306278,0.05159515,8.621676E-4,0
1774611450682,0.33865422,-5.5789948E-5,-0.07865286,-0.026463054,0.04363323,-0.029843798,0.12087295,0.0034948043,0
1774611450699,0.31287614,1.3399124E-4,0.063657284,-0.015404862,0.06501684,-0.03254173,0.10194374,0.0055234637,0
1774611450725,0.182805,0.004135132,0.1661148,6.4950227E-4,-0.004729709,-0.012906776,0.061028898,1.8937686E-4,0
1774611450753,0.18968743,0.016665936,0.19248104,0.0073110643,-0.037071593,-0.015554748,0.07330802,0.0016697048,0
1774611450766,0.3336117,-0.0039157867,0.11750364,0.00980915,0.0219665,-0.03893683,0.12511921,0.0020948234,0
1774611450781,0.3284154,-0.024941921,0.051713943,0.009026417,0.058488514,-0.0481964,0.1111531,0.0058252756,0
1774611450803,0.17366843,0.008381367,0.031715393,9.492726E-4,0.028761294,-0.034773353,0.031236837,0.0020372993,0
1774611450821,0.067346364,0.04000044,0.043695927,0.008476838,0.0048629404,-0.020634187,0.008044901,5.2127463E-4,0
1774611450843,0.05966252,0.020452023,0.02549076,0.023981623,0.024997512,-0.009326187,0.0046276804,0.0012869715,0
1774611450870,0.03591758,0.002029419,-0.04166746,0.023232197,0.022765888,0.006428407,0.0030303686,0.001099345,0
1774611450881,0.035321057,0.00660038,-0.13412476,0.003663859,-0.007544219,0.013073315,0.019280592,2.4125067E-4,0
1774611450902,0.10674794,0.029436111,-0.095739365,-0.020850688,-0.0112746935,-0.0055290964,0.021427633,5.9244083E-4,0
1774611450921,0.17020284,0.016636848,0.03588438,-0.015354901,0.021949846,-0.025130743,0.03053348,0.001349123,0
1774611450941,0.013216227,-0.0109295845,0.20148277,0.020001339,0.04594812,-0.007361026,0.04088943,0.0025654682,0
1774611450971,-0.15011601,-0.05168867,0.21283388,0.028045176,0.017419985,0.03833729,0.0705048,0.0025597357,0
1774611450983,-0.09370138,-0.041623592,0.188797,0.032691617,0.01582121,0.05284284,0.04615678,0.0041114185,0
1774611451001,0.09247651,-0.058706284,0.19350243,0.062119067,0.04311696,0.030043645,0.04944152,0.0066204714,0
1774611451018,0.08620003,-0.11162281,0.0684371,0.06653235,0.04221765,0.02333212,0.024573732,0.0067532714,0
1774611451040,-0.06728718,-0.10945797,-0.15622759,0.019068722,0.01803618,0.039686255,0.040915668,0.0022639188,0
1774611451071,-0.055565447,-0.08605766,-0.2092123,-0.031709034,0.02904441,0.04511543,0.054263227,0.0038844426,0
1774611451082,0.08690466,-0.094288826,-0.00283432,-0.034656774,0.05997071,0.02682944,0.016450835,0.0055173966,0
1774611451100,0.117773816,-0.104976654,0.23347855,0.008543453,0.07437634,0.021400267,0.079403,0.0060628015,0
1774611451123,0.0038955659,-0.14190578,0.24410439,0.041251723,0.047963247,0.0481964,0.07973938,0.0063250707,0
1774611451141,-0.09769009,-0.1408081,0.09352064,0.04688074,0.018385911,0.08420214,0.038116388,0.0096258465,0
1774611451171,-0.029303178,-0.17063522,-0.08178377,0.03450689,0.01428905,0.09610969,0.03666364,0.010631975,0
1774611451181,0.07751609,-0.15823507,-0.17407513,0.0026479708,0.023298813,0.08896516,0.061349235,0.0084646465,0
1774611451200,0.14838362,-0.12394571,-0.19306707,-0.02281585,0.04040237,0.074226454,0.07465513,0.007662481,0
1774611451218,0.17857839,-0.11878061,-0.07318258,-0.025047474,0.041601453,0.059221286,0.051354766,0.0058652177,0
1774611451237,0.21480985,-0.09739494,0.07669163,-0.0024980856,0.026679555,0.041551493,0.061510652,0.0024445658,0
1774611451260,0.17155975,-0.065318584,0.14271069,0.009442764,0.017703101,0.030010337,0.054065607,0.0013031859,0
1774611451284,0.10697308,-0.05283594,0.040387154,-0.0010325421,0.028911179,0.028095137,0.015866,0.0016262592,0
1774611451299,0.066153295,-0.057924747,0.03926611,-0.013139931,0.030210184,0.030226838,0.009273362,0.0019989747,0
1774611451317,0.09460765,-0.048276424,0.1455903,0.006628254,0.034823313,0.016703866,0.03247776,0.001535616,0
1774611451339,0.083757535,-0.057044983,0.23473072,0.04363323,0.043833077,0.0060953293,0.06536797,0.0038623505,0
1774611451357,0.032204136,-0.06499767,0.11312914,0.048845902,0.04746363,0.011391271,0.018060006,0.0047684796,0
1774611451378,-0.038470075,-0.056755066,0.0011835098,0.03560605,0.032641653,0.016853752,0.0047024847,0.002617317,0
1774611451403,0.018513098,-0.059986115,-0.004190445,0.038786944,0.02819506,0.012273928,0.0039586285,0.0024500377,0
1774611451417,0.006013587,-0.08417988,0.078960896,0.046964012,0.02751225,0.01292343,0.013357238,0.0031295572,0
1774611451437,-0.029142573,-0.06870842,0.011983395,0.048429556,0.042467456,0.017303407,0.0057137385,0.0044483147,0
1774611451459,-0.007697016,-0.10645342,-0.005147457,0.050611217,0.058371935,0.016770482,0.011418071,0.006250027,0
1774611451477,0.0018596649,-0.10707188,-0.026398659,0.049445443,0.05079441,0.012057427,0.012164734,0.0051703053,0
1774611451500,-0.051289022,-0.071156025,-0.079910755,0.040502295,0.030809725,0.018968798,0.014079472,0.0029494904,0
1774611451516,-0.11487788,-0.09547377,-0.14630127,0.0107251145,0.030859686,0.041101836,0.04371623,0.0027567092,0
1774611451536,-0.102576986,-0.11991501,-0.11970806,0.008809916,0.047330398,0.058821592,0.039231665,0.005777761,0
1774611451556,-0.04320909,-0.14836502,0.017490387,0.03325785,0.056789815,0.06087002,0.02418512,0.008036328,0
1774611451577,0.019677058,-0.16940928,-0.013035774,0.032991387,0.045315277,0.06161945,0.02925662,0.0069388626,0
1774611451599,0.020714045,-0.14381409,-0.056500435,0.026879402,0.03956968,0.06606604,0.024303861,0.006652984,0
1774611451619,0.036748514,-0.115810394,-0.036013603,0.039936062,0.05800555,0.060670175,0.01605948,0.008640403,0
1774611451639,-0.018239096,-0.10682821,-0.12359047,0.024431279,0.046481047,0.064217456,0.027019534,0.0068812566,0
1774611451661,-0.08353369,-0.06453133,-0.32477045,-0.026213245,0.03787098,0.0675982,0.116618015,0.0066908626,0
1774611451688,-0.07036181,-0.05208826,-0.2544937,-0.053542305,0.028494831,0.06235222,0.07243102,0.007566533,0
1774611451699,0.0036518872,-0.06584549,0.012388229,-0.04486562,0.030343415,0.057888974,0.0045024324,0.00628478,0
1774611451717,-0.0024662018,-0.06028509,0.215806,-0.009376149,0.0550245,0.070695825,0.05021261,0.008113507,0
1774611451736,-0.012683034,-0.090164185,0.27694082,0.022865811,0.07332715,0.08536792,0.08498666,0.013187397,0
1774611451755,0.023794949,-0.076406956,0.17777634,0.027195826,0.06678216,0.09019755,0.038008645,0.013335068,0
1774611451777,0.025543109,-0.03911972,0.088088036,0.0394531,0.06145291,0.0846518,0.009942305,0.012498934,0
1774611451803,-0.006327361,-0.05959606,-0.06447506,0.03412385,0.064933576,0.08844889,0.0077487594,0.013204013,0
1774611451818,-0.060353488,-0.061086655,-0.26391888,-0.005046133,0.043050345,0.10222167,0.0770273,0.012328065,0
1774611451837,-0.02028659,-0.044151306,-0.21605778,-0.035239663,0.033874042,0.09812481,0.04904185,0.012017763,0
1774611451854,0.08700101,-0.014807701,0.023361683,-0.017370023,0.0712121,0.07475938,0.008334212,0.0109618455,0
1774611451877,0.09366034,-0.06373072,0.13920212,0.011208078,0.09780838,0.069663286,0.032211095,0.014545076,0
1774611451901,-0.060795322,-0.0569067,0.12858534,0.02904441,0.07274426,0.09209609,0.023468632,0.014616994,0
1774611451917,-0.1687126,-0.02557993,0.056500435,0.040235832,0.045615043,0.113379784,0.03231057,0.01655463,0
1774611451938,-0.040356174,-0.046821117,-0.081112385,0.029577335,0.061386295,0.10531929,0.010400057,0.01573525,0
1774611451955,0.109039955,-0.074046135,-0.20006895,-0.0056456737,0.08511811,0.07865639,0.057400126,0.013463793,0
1774611451979,0.13072136,-0.056404114,-0.11732054,-0.01625421,0.0857343,0.052176684,0.034033608,0.0103369765,0
1774611452000,0.067207366,-0.08757591,0.057165146,-0.0017986217,0.086567,0.045481812,0.015454225,0.009565676,0
1774611452018,-0.05129178,-0.120713234,0.13240099,0.014139165,0.08222033,0.06465046,0.03473255,0.01113978,0
1774611452037,-0.07882927,-0.14601326,0.12753296,0.039719563,0.10062289,0.08028848,0.04379858,0.01814885,0
1774611452056,1.6461313E-4,-0.1799779,0.034953594,0.03625555,0.107367724,0.075542115,0.033613823,0.018548904,0
1774611452077,0.0070524365,-0.13701725,-0.12434244,0.020284455,0.098041534,0.06548315,0.034284506,0.014311645,0
1774611452103,-0.069621086,-0.14995575,-0.17164183,0.003147588,0.0759085,0.07137863,0.05679474,0.010866916,0
1774611452117,-0.13172257,-0.17267847,-0.1660018,-0.007161179,0.07092898,0.08691673,0.074725285,0.012636721,0
1774611452134,-0.082521886,-0.20857573,-0.08596182,-0.008043836,0.07484265,0.098058194,0.057703126,0.015281534,0
1774611452153,-0.02217573,-0.16863537,-0.022147179,-0.0022149694,0.098407924,0.09800823,0.029420149,0.019294638,0
1774611452177,0.063133836,-0.13830328,-0.030714512,-0.010808384,0.1147121,0.08408557,0.02405706,0.02034607,0
1774611452201,0.11313298,-0.055448055,-0.061240196,-0.016320826,0.10208844,0.057855666,0.01962392,0.014035696,0
1774611452217,0.007315725,0.009561062,-0.08367443,-0.02712921,0.067048624,0.04636447,0.007146344,0.0073811756,0
1774611452245,-0.116196275,0.050520897,-0.14879131,-0.059937403,0.052959416,0.055157732,0.03819279,0.009439568,0
1774611452256,-0.050112396,0.067516804,-0.05223608,-0.07192822,0.078623086,0.05272626,0.00979838,0.014135317,0
1774611452273,0.105727896,0.08789253,0.17874908,-0.04043568,0.093944676,0.03390735,0.05085472,0.011610354,0
1774611452293,0.10171224,0.104623795,0.32145786,-0.009459418,0.054957885,0.02921095,0.124626674,0.003963129,0
1774611452315,0.03360176,0.10061598,0.23925304,0.0028478177,0.0371049,0.04718051,0.06849468,0.0036108843,0
1774611452335,0.035295904,0.09140015,0.17183208,0.030826379,0.058971476,0.074359685,0.039126053,0.009957263,0
1774611452356,0.10999033,0.13446283,0.072244644,0.04792994,0.058921516,0.09114682,0.035397414,0.014076767,0
1774611452378,0.2950991,0.21243238,-0.12672424,0.00388036,0.016354134,0.068097815,0.14827004,0.0049198275,0
1774611452403,0.58857846,0.2192111,-0.1794343,-0.05407523,-0.013822741,0.012307236,0.42667478,0.0032666666,0
1774611452416,0.78430045,0.18300295,0.09493494,-0.036005743,0.015971094,-0.05199349,0.6576299,0.0042548124,0
1774611452437,0.6694506,0.12987614,0.35097742,0.031009572,0.027961906,-0.08405226,0.588217,0.008808244,0
1774611452453,0.28133687,0.10362148,0.19021845,0.07202814,-0.0151384,-0.060320444,0.12607092,0.009055779,0
1774611452476,-0.07785687,0.06900835,-0.13502932,0.05024483,-0.07172837,-0.02120042,0.02905676,0.00811896,0
1774611452494,-0.13861325,0.051804066,-0.46668673,0.010675153,-0.08941481,-0.015321593,0.2396938,0.008343718,0
1774611452512,-0.13507906,0.047560215,-0.402246,-0.014089203,-0.08843224,-0.027029287,0.18231016,0.008749349,0
1774611452532,-0.21493673,0.020240307,-0.17046833,-0.025347244,-0.111164816,-0.022616003,0.07566692,0.013511582,0
1774611452552,-0.2806068,-0.0012979507,0.19740438,0.0011657734,-0.091330014,-0.0015155054,0.11771035,0.008344827,0
1774611452572,-0.24015269,0.023656845,0.5171852,0.083919026,-0.065633036,0.010125574,0.32571352,0.011452626,0
1774611452591,-0.24074303,0.05521059,0.563303,0.1418413,-0.08363591,0.01010892,0.3783157,0.027216112,0
1774611452619,-0.17463998,0.06831217,0.24612379,0.11924196,-0.10197186,-0.010092266,0.0957426,0.024718758,0
1774611452631,-0.0994122,0.053339005,-0.032957077,0.08351933,-0.06639912,-0.041734684,0.013814005,0.013126105,0
1774611452654,-0.010447785,-0.016517162,-0.08274603,0.058371935,-0.025230667,-0.07184494,0.0072288783,0.009205565,0
1774611452674,0.07265249,-0.050083637,-0.005106449,0.06629919,-0.023065658,-0.102304935,0.007812831,0.015393907,0
1774611452692,0.09740813,-0.08590698,0.06538534,0.08505149,-0.031126149,-0.1360291,0.021143597,0.026706507,0
1774611452721,-0.027320892,-0.048259735,-0.13416338,0.05182695,-0.01948507,-0.15011829,0.021075247,0.0256012,0
1774611452732,-0.22444528,0.003932953,-0.24400854,0.0016986983,-0.01330647,-0.13622895,0.10993132,0.018738275,0
1774611452754,-0.26770777,-0.0120511055,-0.056600094,0.0015321593,-0.0020317764,-0.10485298,0.075016245,0.011000623,0
1774611452774,-0.16611755,-0.05470276,0.25353146,0.054008614,-0.0011990812,-0.085917495,0.094865635,0.010300184,0
1774611452791,0.007806301,-0.06284714,0.28624773,0.090897016,0.003513974,-0.096542686,0.08594846,0.017595105,0
1774611452817,-0.039239496,-0.0052452087,0.05884838,0.08028848,-0.0035306278,-0.10178867,0.005030382,0.016819637,0
1774611452833,-0.13735524,0.01061821,-0.17575121,0.036105666,-0.006411753,-0.08540122,0.049867693,0.008638099,0
1774611452853,-0.22284427,0.01296711,-0.16817427,4.163476E-4,-0.019934723,-0.06406757,0.0781103,0.0045022205,0
1774611452876,-0.16970852,-0.03355789,0.0056447983,0.016021056,-0.021999808,-0.054141846,0.029958978,0.0036720051,0
1774611452893,-0.10575235,-0.1644206,0.20243073,0.05470808,-0.034323696,-0.0401026,0.07919589,0.0057793087,0
1774611452918,-0.12533623,-0.20037556,0.12876892,0.07264433,-0.009342841,-0.016154287,0.07244097,0.005625448,0
1774611452931,-0.21120897,-0.1610446,-0.059360504,0.05114414,0.012223966,0.008543453,0.07406826,0.0028381392,0
1774611452950,-0.1903618,-0.13507414,-0.20237637,0.02652967,0.024114855,0.018069487,0.09543882,0.0016118559,0
1774611452970,-0.13691127,-0.13548231,-0.17342424,0.022382848,0.00882657,0.016520673,0.06717612,8.5183285E-4,0
1774611452991,-0.042956173,-0.15368032,-0.12282562,0.02636313,9.992343E-5,0.008476838,0.04054901,7.6688145E-4,0
1774611453015,-0.11476937,-0.09343338,-0.15806866,0.008526799,-0.021217074,0.017936256,0.046887506,8.445798E-4,0
1774611453033,-0.15918502,-0.107206345,-0.12341976,-0.01880226,-0.012440467,0.03087634,0.052065507,0.0014616386,0
1774611453050,-0.0814707,-0.113660336,0.0310359,-0.0069113704,0.032774884,0.032641653,0.020519374,0.0021874376,0
1774611453070,-0.0035128891,-0.11051273,0.2315464,0.025164051,0.033041347,0.03147588,0.06583914,0.002715691,0
1774611453094,0.038920432,-0.111934185,0.2939396,0.04887921,-0.0028811255,0.03587251,0.10044455,0.0036843151,0
1774611453121,0.15148574,-0.09687853,0.30216932,0.059604324,3.8303982E-4,0.011724349,0.12363967,0.0036902826,0
1774611453131,0.35936728,-0.056736946,0.2183032,0.065266654,0.08466845,-0.03232523,0.18002021,0.0124734035,0
1774611453151,0.369935,-0.06467819,0.15397549,0.057106238,0.11299674,-0.06686543,0.16474362,0.020500371,0
1774611453169,0.26515985,-0.05023861,0.0591774,0.03374081,0.08523469,-0.0755088,0.07633563,0.0141049735,0
1774611453189,0.15617882,-0.041669846,0.15522671,0.042883806,0.060969945,-0.083535984,0.05022353,0.0125346165,0
1774611453212,0.114658535,-0.050502777,0.17414808,0.05745597,0.072344564,-0.0899644,0.046024665,0.016628519,0
1774611453238,0.03550002,-0.07286453,0.1190691,0.038420558,0.08961466,-0.08336945,0.02074694,0.01645739,0
1774611453249,-0.007867068,-0.1170063,0.11588049,0.031459227,0.10933288,-0.06391769,0.027180653,0.017028833,0
1774611453270,-0.059582293,-0.14461899,0.26375246,0.08670023,0.115611404,-0.03480666,0.09403007,0.02209443,0
1774611453291,-0.15406576,-0.15003061,0.21360493,0.12368855,0.067997895,0.003513974,0.091872506,0.019934919,0
1774611453311,-0.0892095,-0.124616146,-0.14745665,0.07982217,0.03164242,0.024064893,0.04523098,0.00795194,0
1774611453331,0.19166416,-0.13223362,-0.32262373,0.033324465,0.04691405,-0.005945444,0.15830696,0.0033467964,0
1774611453349,0.39668974,-0.12849998,-0.1784563,0.042200994,0.08217037,-0.061086524,0.20572166,0.012264457,0
1774611453371,0.2595051,-0.094112396,-0.10596752,0.05485796,0.0733438,-0.0836026,0.08742915,0.015378103,0
1774611453391,-0.016315222,-0.05915022,-0.32794333,0.017586524,0.030443339,-0.06278522,0.111311756,0.005178067,0
1774611453410,-0.23982704,0.026958466,-0.40070295,-0.024381317,-0.008127105,-0.026313169,0.21880662,0.0013528813,0
1774611453428,-0.15361565,9.884834E-4,-0.28016233,-0.04120176,-0.011024885,-0.012940084,0.10208968,0.0019865788,0
1774611453454,0.0768345,-0.05951023,-0.05673647,-0.04401627,0.004912902,-0.03314127,0.012664035,0.0030599125,0
1774611453471,0.2604619,-0.090471745,0.1642828,-0.02234954,0.030243492,-0.07019621,0.103014365,0.006341679,0
1774611453492,0.20066357,-0.072134495,0.26458025,0.008027182,0.051727027,-0.07843989,0.11547196,0.008892938,0
1774611453520,-0.108757555,-0.034932613,0.14680481,0.020167878,0.04026914,-0.035089776,0.034600146,0.0032596393,0
1774611453530,-0.28116196,-0.034100056,-0.014251232,0.008227029,0.0074776034,0.02226627,0.08041796,6.1938533E-4,0
1774611453551,-0.19738263,-0.053088665,-0.071856976,-0.010741768,-0.010508614,0.046197932,0.04694173,0.0023600655,0
1774611453570,0.036821246,-0.059232235,0.0030260086,-0.006977986,0.03543951,0.03770444,0.0048734187,0.002726276,0
1774611453593,0.13634765,-0.0889678,0.086444855,0.018485835,0.06581623,0.029194295,0.033978663,0.0055258092,0
1774611453608,0.054929256,-0.055669785,0.033437252,0.022216309,0.03697167,0.04456585,0.0072343983,0.0038465837,0
1774611453631,-0.048740506,-0.0056443214,-0.0024118423,0.014422282,-0.016620597,0.06771478,0.0024133124,0.005069538,0
1774611453649,-0.010235906,-0.01404047,-0.027967453,0.00797722,-0.0103587285,0.07372684,0.001084087,0.005606586,0
1774611453670,0.086992085,-0.06487036,-0.042891502,-4.8296325E-4,0.042034455,0.06594946,0.013615467,0.00611646,0
1774611453687,0.11069006,-0.0895195,-0.034223557,-0.015937787,0.062335566,0.06183595,0.021437282,0.007963421,0
1774611453707,0.045271456,-0.06923485,0.11341143,-0.006128637,0.04533193,0.06713189,0.01970512,0.006599235,0
1774611453732,0.044377565,-0.07253933,0.2301774,0.035506126,0.043316808,0.07444295,0.06021296,0.008678784,0
1774611453753,-0.015202999,-0.050847054,0.19318485,0.0526763,0.03961964,0.08558442,0.04013694,0.011669201,0
1774611453769,-0.06400043,-0.03753853,-0.017163754,0.025946783,0.048612747,0.100189894,0.0057997904,0.013074449,0
1774611453789,-0.03960538,-0.051811695,-0.08726311,0.006661562,0.071162134,0.106784835,0.011867888,0.016511427,0
1774611453807,0.14591408,-0.109848976,0.03058052,0.018868875,0.07774043,0.08718319,0.034292884,0.014000518,0
1774611453827,0.20161733,-0.08264685,0.13040304,0.03893683,0.06293511,0.06430072,0.064485006,0.009611487,0
1774611453851,0.16179508,-0.07197571,0.06951904,0.042250957,0.08253675,0.050477985,0.03619105,0.011145486,0
1774611453866,0.06299728,-0.044348717,-0.08500242,0.022632657,0.099357195,0.05688974,0.013160878,0.013620531,0
1774611453888,0.023634017,-0.06177616,-0.113230705,0.009526034,0.101955205,0.07072914,0.017196054,0.01548822,0
1774611453909,0.0992755,-0.10090828,-0.021117687,0.012590352,0.08771612,0.060786754,0.020484062,0.011547664,0
1774611453938,0.19968706,-0.101367,0.06871557,0.025430514,0.091713056,0.02989376,0.05487202,0.0099516325,0
1774611453948,0.19426158,-0.07492828,0.11299515,0.028145099,0.122822545,0.0062452145,0.056119714,0.015916526,0
1774611453967,0.13221478,-0.015056133,0.079194546,0.012057427,0.1580289,0.0027478943,0.023979213,0.025126066,0
1774611453986,-0.039462388,0.109737396,0.2036829,0.028394908,0.11627756,0.014705398,0.0550863,0.01454299,0
1774611454008,-0.11913288,0.11790085,0.3846326,0.076141655,0.07031278,0.02554709,0.17603548,0.011394093,0
1774611454037,-0.07925725,0.04595661,0.28694773,0.082603365,0.080838054,0.030809725,0.090732716,0.014307346,0
1774611454046,0.03414923,-0.016845226,0.23912668,0.08668357,0.09880762,0.026046706,0.058631502,0.017955419,0
1774611454066,0.15914077,-0.094426155,0.3347597,0.12988381,0.111264735,4.8296325E-4,0.14630614,0.029249879,0
1774611454090,0.098172545,-0.13481188,0.2924161,0.16350804,0.06991309,-0.0022316233,0.11331926,0.0316277,0
1774611454109,-0.0043385625,-0.13910103,0.050180912,0.1578457,0.029943721,0.0011491195,0.021886043,0.025813214,0
1774611454127,0.032767475,-0.1351676,-0.21020222,0.12124043,0.025280628,-0.012940084,0.063528955,0.015505798,0
1774611454147,0.17794591,-0.21098852,-0.2954178,0.08753292,0.044432618,-0.05395865,0.16345257,0.012547806,0
1774611454166,0.28774458,-0.27281952,-0.19613123,0.066932045,0.05813878,-0.10188859,0.1956949,0.018241301,0
1774611454185,0.11121154,-0.22604513,-0.08016014,0.075525455,0.06470042,-0.111164816,0.06989006,0.022247855,0
1774611454208,-0.15521592,-0.2504201,-0.109274864,0.06579958,0.06798124,-0.07394334,0.0987432,0.014418652,0
1774611454239,-0.28308147,-0.20705509,-0.2706461,0.0422343,0.059720904,-0.040285796,0.19625625,0.0069732675,0
1774611454246,-0.19891375,-0.17374182,-0.244905,0.03177565,0.032758232,-0.041568145,0.12973136,0.0038107042,0
1774611454268,-0.13971621,-0.13362265,-0.27685976,-1.6653904E-4,0.020201186,-0.05084437,0.114026956,0.0029932656,0
1774611454286,-0.109968126,-0.09189129,-0.28537512,-0.04683078,0.025313936,-0.055374235,0.101975955,0.0059002233,0
1774611454308,-0.0801968,-0.029244423,-0.12458849,-0.095127106,0.057805702,-0.06358461,0.022809055,0.016433667,0
1774611454332,-0.021562755,0.05270672,0.07538509,-0.13481335,0.085101455,-0.060936637,0.008925863,0.029130174,0
1774611454348,-0.1350702,0.089289665,0.10699129,-0.15699635,0.0833861,-0.03480666,0.037663743,0.032812603,0
1774611454368,-0.3021924,0.21544266,0.17720461,-0.13373086,0.06956336,-0.018569104,0.16913725,0.023067815,0
1774611454386,-0.10192233,0.1559267,0.42620516,-0.036522012,0.09259571,-0.02418147,0.21635213,0.010492567,0
1774611454406,0.06972462,0.04217863,0.5468745,0.058871552,0.06281853,-0.03404058,0.3057123,0.008570788,0
1774611454427,0.025174558,0.048345566,0.26035452,0.09282886,-0.018885529,-0.022183001,0.07075553,0.009465947,0
1774611454454,-0.08796644,0.09559107,-0.14213562,0.057905626,-0.08095463,-0.008160413,0.037078284,0.009973306,0
1774611454465,-0.034914732,0.12606382,-0.40087795,-0.0061952528,-0.07087902,-0.010974923,0.17781426,0.0051826653,0
1774611454487,0.15346932,0.1035161,-0.2606778,-0.017053599,-0.03297473,-0.03770444,0.10222134,0.002799783,0
1774611454505,0.2098245,0.10980892,0.05455637,0.03685509,-0.02111715,-0.078956164,0.05906072,0.008038308,0
1774611454527,0.19287068,0.056300163,0.10503292,0.06746497,-0.06226895,-0.10790065,0.05140072,0.020071495,0
1774611454553,0.0028859377,0.10964918,-0.13996077,0.04763017,-0.10045636,-0.117176875,0.031620286,0.026090533,0
1774611454571,-0.12715071,0.11872578,-0.33678865,0.01885222,-0.09885758,-0.11596114,0.1436897,0.023575215,0
1774611454587,-0.07312465,0.05428219,-0.31503582,0.009642611,-0.08806585,-0.12523736,0.10754134,0.023532968,0
1774611454604,0.044762015,0.01866293,-0.27702856,0.003847052,-0.11935854,-0.15319927,0.079096764,0.037731275,0
1774611454624,0.09706527,-9.784698E-4,-0.27608442,-0.017636485,-0.17738074,-0.1889552,0.08564523,0.067479044,0
1774611454646,0.020505726,-0.01784563,-0.23766279,-0.036621936,-0.18184398,-0.19978024,0.057222556,0.07432055,0
1774611454666,-0.08071703,-0.0973897,-0.15673399,-0.030526608,-0.15319927,-0.18395904,0.040565535,0.05824282,0
1774611454691,-0.13475645,-0.08992672,-0.08635855,-0.019684916,-0.15619697,-0.17240122,0.033703916,0.054507166,0
1774611454704,-0.09163457,-0.023234367,-0.13352156,-0.027412327,-0.17604843,-0.18942152,0.026764736,0.067625,0
1774611454723,-0.04430473,-0.012584209,-0.22314167,-0.05379211,-0.22307906,-0.219665,0.051913474,0.100910574,0
1774611454743,-0.07957965,-0.0050621033,-0.14514065,-0.070096284,-0.2491091,-0.22865811,0.027424352,0.11925337,0
1774611454773,-0.20901579,0.015575409,0.020768642,-0.053292494,-0.23430379,-0.21180436,0.04436153,0.10259944,0
1774611454785,-0.24787128,0.0059075356,0.117455006,-0.02166673,-0.21535164,-0.18845558,0.07527075,0.08236128,0
1774611454804,-0.17221123,-0.0067515373,0.043192387,-0.009309533,-0.26632926,-0.18554115,0.03156787,0.105443455,0
1774611454825,-0.076094866,0.017688751,-0.044485092,-0.016820444,-0.34193796,-0.20829038,0.008082244,0.16058938,0
1774611454850,0.020468414,0.039911747,-0.032917976,-0.020101262,-0.35855857,-0.24003273,0.0030954967,0.18658401,0
1774611454865,0.046792448,0.036679268,0.068386555,-0.020384379,-0.33139604,-0.26734513,0.008211623,0.18171228,0
1774611454886,-0.010815859,0.04255724,0.1750722,0.0027312404,-0.29675594,-0.27921936,0.032578375,0.166035,0
1774611454903,-0.07252103,0.028361797,0.28273916,0.04811313,-0.34501895,-0.28489834,0.08600513,0.20252001,0
1774611454923,-0.17430532,0.06847429,0.2295909,0.073793456,-0.41629764,-0.28561446,0.08778305,0.26032484,0
1774611454942,-0.17848343,0.08320713,0.004876137,0.07409322,-0.43906355,-0.2960731,0.038803536,0.2859259,0
1774611454969,-0.13085794,0.07998562,-0.22707129,0.052343223,-0.44520885,-0.32010472,0.07508287,0.30341777,0
1774611454989,-0.054740965,0.03127098,-0.3469844,9.992343E-4,-0.47197166,-0.35900822,0.12437261,0.35164517,0
1774611455002,0.06604594,0.03041172,-0.37988138,-0.052526414,-0.49177316,-0.4110517,0.1495968,0.41356337,0
1774611455022,0.12924945,0.016708374,-0.121937275,-0.07832331,-0.4960865,-0.46917382,0.03185329,0.47236043,0
1774611455042,0.12526494,-0.061872005,0.081231594,-0.07559207,-0.45491806,-0.50008345,0.026118023,0.46274805,0
1774611455069,0.012873054,-0.15560293,0.20686531,-0.042600688,-0.4173968,-0.50246495,0.067171246,0.42850596,0
1774611455081,-0.067745924,-0.24679232,0.20570946,0.017986218,-0.43007043,-0.49037424,0.107812345,0.42575097,0
1774611455104,-0.08901745,-0.30153418,0.045729637,0.06486696,-0.47758403,-0.47928274,0.10093817,0.46200615,0
1774611455122,-0.07792306,-0.2916174,-0.33077955,0.011008231,-0.55862194,-0.4838792,0.20052782,0.54631877,0
1774611455143,-0.09079009,-0.13238955,-0.46679068,-0.08290314,-0.566799,-0.49676934,0.24366337,0.57491374,0
1774611455169,-0.07563859,-0.07218552,-0.10654163,-0.0850848,-0.4908905,-0.5100591,0.022283066,0.5083732,0
1774611455181,-0.15099299,-0.029377937,0.2579875,-0.052509762,-0.43873048,-0.5021485,0.0902195,0.44739485,0
1774611455201,-0.2836237,-0.009691715,0.33403158,-0.049412135,-0.45553425,-0.4591315,0.19211343,0.42075473,0
1774611455224,-0.2904116,-0.021262646,0.47138357,-0.016937021,-0.47436982,-0.4286382,0.30699345,0.40904427,0
1774611455248,-0.02958852,-0.11371851,0.6407938,0.047013972,-0.45758268,-0.44069564,0.42442408,0.40580487,0
1774611455266,0.14886177,-0.15202856,0.68233204,0.11061524,-0.41463226,-0.47233805,0.51084954,0.40725887,0
1774611455281,0.075772166,-0.16302061,0.4322815,0.1281518,-0.40618873,-0.47721764,0.21918443,0.40914884,0
1774611455301,-0.11350912,-0.14029741,0.16002989,0.111980855,-0.41659743,-0.45994756,0.058177248,0.39764488,0
1774611455320,-0.084079474,-0.14867401,-0.03074503,0.096542686,-0.4127004,-0.46272874,0.030118577,0.39376,0
1774611455340,0.081567496,-0.19063187,-0.0922513,0.08643377,-0.40878674,-0.48564452,0.051504068,0.410428,0
1774611455360,0.27085763,-0.2724228,-0.07009554,0.070112936,-0.4120509,-0.5241983,0.15249142,0.4494856,0
1774611455380,0.36169234,-0.27883577,-0.102163315,0.058338627,-0.38237366,-0.56591636,0.21900807,0.46987432,0
1774611455400,0.2745384,-0.2894349,-0.06234455,0.0484129,-0.35506126,-0.5828534,0.16303074,0.46813038,0
1774611455425,0.087126195,-0.29498053,-0.08755827,0.034007274,-0.35126415,-0.55733955,0.10227094,0.43517035,0
1774611455454,-0.06622183,-0.29535818,-0.03183651,0.045864854,-0.35452834,-0.5140394,0.09263535,0.39203042,0
1774611455465,-0.028191984,-0.27526474,0.023368835,0.07301072,-0.3541786,-0.4881426,0.07711157,0.36905625,0
1774611455481,0.05627173,-0.22095728,-0.026387215,0.06851416,-0.35860854,-0.48414567,0.052684914,0.3676913,0
1774611455503,0.053468674,-0.09544277,-0.14697886,0.023015697,-0.36408767,-0.4742033,0.033571005,0.35795832,0
1774611455522,0.0055309534,0.01760006,-0.026813507,-0.0056956355,-0.37717763,-0.43766463,0.0010593177,0.33384573,0
1774611455545,0.04905191,0.0645628,0.31117392,0.02606336,-0.36420426,-0.40194198,0.10340365,0.2948814,0
1774611455570,0.18187955,0.047664165,0.4329996,0.08328618,-0.36710203,-0.37807694,0.2228407,0.28464267,0
1774611455585,0.2577879,-0.001437664,0.3147502,0.07384341,-0.41734686,-0.3653034,0.16552436,0.31307784,0
1774611455602,0.3049587,0.042774677,-0.012667656,0.013089969,-0.41005245,-0.36666903,0.094989955,0.30276054,0
1774611455621,0.43173254,-0.017624855,-0.035691738,-0.03194219,-0.3305134,-0.3789263,0.18797751,0.25384456,0
1774611455644,0.45670146,-0.033680916,0.14223623,-0.042667303,-0.26489702,-0.385821,0.22994177,0.2208488,0
1774611455669,0.32088614,-0.009253502,0.35647392,-0.016970329,-0.27264106,-0.3758953,0.2301272,0.2159184,0
1774611455682,0.15830287,-0.0060305595,0.474041,0.027079249,-0.28912845,-0.33575937,0.24981102,0.19706291,0
1774611455702,0.08686295,-0.08199024,0.40678453,0.060353752,-0.26712865,-0.27980226,0.17974123,0.15328959,0
1774611455721,0.102210134,-0.10407877,0.19088697,0.08092132,-0.23205552,-0.23785107,0.057717137,0.11697115,0
1774611455741,0.23049709,-0.06805754,-0.10750294,0.069746554,-0.22675957,-0.23713495,0.06931762,0.11251747,0
1774611455772,0.29639697,-0.0075979233,-0.3281021,0.023565276,-0.2694935,-0.2503415,0.19555989,0.13585293,0
1774611455779,0.29577017,0.017854214,-0.41234064,-0.04163476,-0.28073487,-0.2559705,0.25782356,0.14606641,0
1774611455802,0.25240886,0.029083729,-0.257555,-0.057006314,-0.20497626,-0.24173144,0.13089068,0.10369907,0
1774611455818,0.23973109,-0.03721142,0.058856487,0.0011657734,-0.12751895,-0.21380283,0.06231977,0.061974093,0
1774611455841,0.11970481,-0.06594324,0.10468054,0.050611217,-0.15573066,-0.16748832,0.029635768,0.054865874,0
1774611455872,-0.0012610555,-0.040281773,-0.18230677,0.027778713,-0.24987519,-0.12192324,0.03485997,0.078074545,0
1774611455882,0.12489253,7.5674057E-4,-0.38528872,-0.031992152,-0.23596917,-0.11367956,0.16404611,0.069627985,0
1774611455900,0.33233428,0.024734497,-0.29268265,-0.050144907,-0.13443032,-0.13674521,0.196721,0.039285272,0
1774611455920,0.29969078,0.0152311325,0.0532856,-0.012107389,-0.090863705,-0.13358097,0.09288591,0.026246676,0
1774611455940,0.112113625,0.028548717,0.22064877,0.044199463,-0.108533494,-0.08963132,0.062070373,0.021766886,0
1774611455960,0.020343274,0.050173283,0.14947414,0.08423545,-0.15812883,-0.043400075,0.025273727,0.033983905,0
1774611455986,0.12474811,0.055184364,-0.05692053,0.07286084,-0.18505819,-0.04085203,0.02184735,0.041224126,0
1774611456001,0.29999465,0.08598566,-0.3322525,0.024914242,-0.13669525,-0.068231046,0.20778205,0.023961786,0
1774611456018,0.38556457,0.07689047,-0.2956562,-0.012990045,-0.08311964,-0.10505283,0.24198475,0.018113714,0
1774611456040,0.34241238,0.056185246,-0.055425167,-0.012906776,-0.07667458,-0.11652737,0.12347497,0.019624203,0
1774611456061,0.184393,0.018854141,0.26171637,0.038353942,-0.100539625,-0.089581355,0.10285172,0.01960406,0
1774611456087,0.08254859,-0.043121815,0.3851142,0.09949043,-0.10218836,-0.044316042,0.1569867,0.02230472,0
1774611456100,0.13747841,-0.051016808,0.1950221,0.119658306,-0.0565067,-0.01778637,0.05953665,0.017827474,0
1774611456118,0.29533625,-0.027260303,-0.13752508,0.093245216,-0.035339586,-0.023898354,0.10687977,0.010514688,0
1774611456137,0.38659906,0.007973194,-0.31869793,0.054941233,-0.05932121,-0.05109418,0.25109076,0.00914816,0
1774611456157,0.44972605,-0.03396988,-0.33436537,0.016537327,-0.0742098,-0.07795693,0.31520766,0.011857862,0
1774611456177,0.40929374,-0.049985886,-0.28527737,-0.012523737,-0.028777948,-0.08363591,0.25140312,0.00797998,0
1774611456204,0.30512848,-0.04484415,-0.09210491,0.00844353,0.007993874,-0.062801875,0.10359771,0.004079271,0
1774611456219,0.24998847,-0.092135906,0.07406759,0.05049464,0.006628254,-0.029177641,0.07646927,0.0034449773,0
1774611456238,0.28595054,-0.10998058,0.002564907,0.052959416,-0.022932427,-0.014322358,0.09387002,0.0035357259,0
1774611456257,0.40329832,-0.060830116,-0.17414474,0.032824848,-0.011208078,-0.022332886,0.19667622,0.0017018494,0
1774611456277,0.4906666,-0.0740118,-0.15429926,0.032341883,0.011024885,-0.03973622,0.2700397,0.0027465126,0
1774611456303,0.47407764,-0.07734251,-0.06831694,0.03855379,0.025147397,-0.052826185,0.23539868,0.0049093924,0
1774611456317,0.42608967,-0.048929214,-0.03831911,0.035456162,0.026979325,-0.049095713,0.18541484,0.0043954123,0
1774611456336,0.40972126,-0.01784134,0.041479588,0.044282734,0.034323696,-0.03850383,0.16991039,0.004621621,0
1774611456357,0.48765466,-0.06470442,0.1162076,0.06851416,0.05552412,-0.04090199,0.25549793,0.009450091,0
1774611456377,0.5146359,-0.051239967,-0.0018844604,0.061902564,0.07252776,-0.052043453,0.2674792,0.011800724,0
1774611456405,0.4529199,-0.007519722,-0.21115923,0.026796132,0.06977986,-0.058321975,0.2497812,0.008988714,0
1774611456419,0.3621811,0.0073518753,-0.23755026,0.0032475113,0.06871401,-0.05685643,0.18765932,0.007964815,0
1774611456437,0.3605535,-0.051795006,-0.061378956,0.010958269,0.077540584,-0.044499233,0.13644892,0.008112808,0
1774611456457,0.27294868,-0.05329132,0.05666876,0.029260911,0.0955601,-0.01232389,0.0805523,0.010139813,0
1774611456476,0.1479693,-0.017876148,0.085831165,0.025164051,0.06909705,0.03792094,0.029581461,0.00684563,0
1774611456501,0.19278476,-0.005765915,0.112231255,0.027062595,0.064583845,0.07007963,0.04979506,0.009814613,0
1774611456517,0.48497906,-0.071820736,0.2389431,0.04866271,0.09674253,0.06103656,0.2974567,0.015452638,0
1774611456536,0.5629249,-0.0034804344,0.20172834,0.058954824,0.120840736,0.035256315,0.35759088,0.019321162,0
1774611456557,0.40629917,0.038177967,0.057807446,0.04166807,0.07973889,0.040752105,0.16987827,0.009755254,0
1774611456577,0.23881891,-0.021152496,0.0069880486,0.022882465,0.009925728,0.07146191,0.057530735,0.0057289316,0
1774611456601,0.2739422,-0.08752298,0.13233566,0.029527374,0.016920367,0.086567,0.10021733,0.00865201,0
1774611456619,0.34228218,-0.085258484,0.22924042,0.05770578,0.07692438,0.08441865,0.17697726,0.016373826,0
1774611456635,0.3449478,-0.11770439,0.13788557,0.063268185,0.12169008,0.07425976,0.15185574,0.02432585,0
1774611456655,0.30574954,-0.1336627,-0.14662409,0.017686447,0.059637632,0.06748162,0.13284712,0.008423227,0
1774611456677,0.22937915,-0.092036724,-0.15055227,-0.02751225,-0.031375956,0.05365888,0.08375154,0.00462065,0
1774611456705,0.21616581,-0.08420515,0.03267908,-0.01680379,-0.0025480473,0.042883806,0.054886088,0.0021278807,0
1774611456717,0.21639651,-0.1904583,0.16514921,0.02294908,0.07604173,0.05454154,0.110376075,0.009283784,0
1774611456738,0.17662463,-0.23719692,0.08676624,0.0328415,0.054574847,0.070129596,0.09498702,0.008975139,0
1774611456757,0.17792305,-0.1616273,-0.049583912,0.014155819,-0.015488132,0.057422664,0.06023856,0.0037376317,0
1774611456778,0.2004016,-0.109433174,-0.1246829,0.0012656967,-0.04035241,0.031276032,0.06768225,0.0026081093,0
1774611456804,0.17448026,-0.14048672,-0.20176601,-0.015571401,-0.023648545,0.015987748,0.0908894,0.0010573303,0
1774611456817,0.08820236,-0.19556475,-0.23550558,-0.04529862,-0.01931853,0.013756125,0.1014881,0.0026144017,0
1774611456837,0.027917624,-0.18178558,-0.09950113,-0.041984495,-0.042800535,0.013373085,0.04372587,0.003773423,0
1774611456854,0.0061392784,-0.18400955,0.15159082,-0.009442764,-0.05792228,0.005012825,0.056876983,0.0034692849,0
1774611456874,-0.05093801,-0.16817474,0.122447014,0.011224732,-0.033407733,0.0071278713,0.0458707,0.0012928777,0
1774611456900,-0.1343705,-0.18159437,-0.047939777,0.014355666,-0.0150051685,0.017419985,0.053330168,7.3469605E-4,0
1774611456916,-0.12953398,-0.18583918,-0.23931503,0.004396631,-0.037554555,0.008793262,0.10858694,0.0015069965,0
1774611456936,-0.01650694,-0.1903019,-0.37011337,-0.03270827,-0.07101225,-0.031575803,0.17347121,0.007109602,0
1774611456956,0.0072057843,-0.121667385,-0.442276,-0.08373583,-0.06283518,-0.07669123,0.21046294,0.016841494,0
1774611456976,-0.032931298,-0.15566397,-0.2619052,-0.10438667,-0.010658499,-0.09749196,0.09391007,0.020514863,0
1774611457005,-0.05832839,-0.21142626,0.026556969,-0.06756489,0.024964204,-0.09436102,0.048808534,0.014092228,0
1774611457013,-0.10111061,-0.2270422,0.3355031,-0.0022316233,-0.021566806,-0.09575995,0.17433384,0.009640075,0
1774611457034,-0.16126263,-0.15406895,0.36057377,0.042500764,-0.073044024,-0.11216405,0.17975631,0.019722518,0
1774611457056,-0.2131741,-0.11860037,0.18412733,0.056773163,-0.075525455,-0.122822545,0.093412116,0.024012664,0
1774611457073,-0.3027719,-0.08432484,0.017739773,0.036272205,-0.058055513,-0.122256316,0.099096194,0.019632723,0
1774611457096,-0.31002972,0.011063099,0.12159109,0.030060299,-0.057439316,-0.13228196,0.111025214,0.021701414,0
1774611457116,-0.20816627,0.0430398,0.42273712,0.08833231,-0.039986026,-0.15919468,0.2238923,0.034744427,0
1774611457135,-0.16631109,0.027880669,0.42587757,0.14342342,-0.0052959416,-0.1823103,0.20980841,0.05383537,0
1774611457154,-0.2932405,0.065431595,-0.009999275,0.11862577,-0.020917304,-0.19218606,0.090371266,0.05144509,0
1774611457175,-0.4539375,0.1327939,-0.41704273,0.029360835,-0.11064854,-0.19163649,0.39761811,0.049829703,0
1774611457194,-0.3902858,0.13311386,-0.44494247,-0.04141826,-0.15752928,-0.21346976,0.3680161,0.07210028,0
1774611457213,-0.17158043,0.11058855,-0.08379936,-0.038886867,-0.10115582,-0.27027622,0.048692007,0.08479392,0
1774611457233,-0.036095977,0.049752712,0.30477238,0.036272205,0.009925728,-0.3141093,0.09666445,0.10007884,0
1774611457256,-0.31859887,0.052371502,0.3526683,0.09962366,-0.007827335,-0.29382485,0.22862293,0.09631918,0
1774611457273,-0.7216647,0.15822268,-0.021557331,0.08380245,-0.123188935,-0.23317131,0.54629916,0.076567225,0
1774611457295,-0.70075184,0.1900506,-0.3265133,0.019884763,-0.18417554,-0.20062959,0.63378334,0.074568264,0
1774611457316,-0.26980853,0.14780664,-0.27596998,-0.014688744,-0.11416252,-0.2375846,0.17080288,0.06969529,0
1774611457336,0.10077137,0.12000513,0.022908688,0.0046630935,-0.04388304,-0.30454996,0.025080908,0.09469814,0
1774611457353,0.046893895,0.1206193,0.24307203,0.048912518,-0.057772394,-0.33018032,0.07583207,0.114749126,0
1774611457372,-0.1724186,0.0908947,0.20105982,0.09131336,-0.09491061,-0.30468318,0.078415066,0.110177994,0
1774611457394,-0.3372047,0.095686436,0.019248486,0.11606106,-0.14005934,-0.2720582,0.1232334,0.10710244,0
1774611457420,-0.30054563,0.09740734,-0.23420525,0.10375383,-0.16600612,-0.26344812,0.15466797,0.1077278,0
1774611457437,-0.13539428,0.027914524,-0.45548296,0.06183595,-0.16172607,-0.27930263,0.22657555,0.10798896,0
1774611457452,-0.086021066,-0.012822151,-0.52864265,0.03224196,-0.15812883,-0.28921172,0.2870271,0.10968769,0
1774611457471,-0.14241433,-0.034136772,-0.41450214,0.030010337,-0.1759485,-0.28969467,0.1932592,0.11578149,0
1774611457492,-0.24190545,-0.01828003,-0.36170673,0.0377544,-0.20520942,-0.27637154,0.18968417,0.11991753,0
1774611457517,-0.3137055,-0.030582428,-0.4234767,0.030593224,-0.2245113,-0.25953445,0.27867895,0.1186994,0
1774611457533,-0.3091951,-0.04044819,-0.4958868,0.014572167,-0.22795865,-0.24622798,0.34314138,0.11280571,0
1774611457552,-0.20369583,-0.01928091,-0.47107315,-0.006794793,-0.21040544,-0.25392208,0.26377365,0.108793035,0
1774611457571,-0.11965525,0.03740406,-0.5056071,-0.05612366,-0.18479173,-0.28106794,0.271355,0.11629703,0
1774611457596,-0.10565084,0.09173632,-0.46588993,-0.09837461,-0.16832101,-0.30748105,0.23663108,0.13255413,0
1774611457620,-0.2180875,0.1515727,-0.31172228,-0.11949176,-0.1703861,-0.31017897,0.16770722,0.1395207,0
1774611457634,-0.3570094,0.1701684,-0.1871171,-0.13502987,-0.19356833,-0.29274234,0.19142583,0.14139985,0
1774611457651,-0.39512485,0.16093636,-0.1482215,-0.16707197,-0.18192725,-0.2733905,0.20399378,0.13575295,0
1774611457673,-0.25972217,0.09230852,-0.13339281,-0.19476742,-0.11261371,-0.27067593,0.09377011,0.12388165,0
1774611457693,-0.18739516,0.08217859,0.044099808,-0.18579096,-0.051510528,-0.2678281,0.043815058,0.10890351,0
1774611457721,-0.20901984,0.025865078,0.27424622,-0.15046804,-0.022066424,-0.24771018,0.11956929,0.08448789,0
1774611457730,-0.20704156,0.040219784,0.28150034,-0.10463648,0.038054172,-0.22294582,0.12372628,0.062101755,0
1774611457754,-0.39251876,0.1330471,0.20598221,-0.064567186,0.031059533,-0.17624827,0.21420118,0.03619707,0
1774611457770,-0.61323595,0.17794228,0.058367252,-0.050428025,-0.011357963,-0.1057856,0.41112852,0.013862582,0
1774611457795,-0.6849556,0.16677094,-0.073675156,-0.037654478,-0.052576378,-0.040635526,0.50240475,0.0058333813,0
1774611457821,-0.54603565,0.12500906,-0.04848957,-0.0011158116,-0.0432835,-0.008243683,0.3161334,0.0019426646,0
1774611457835,-0.4006529,0.13418007,-0.11532116,-0.0048629404,-0.046247892,0.0024980856,0.191826,0.002168756,0
1774611457853,-0.3881737,0.19613695,-0.2995305,-0.06833097,-0.04917898,0.014555513,0.27886704,0.007299557,0
1774611457877,-0.30612355,0.13513422,-0.1855855,-0.09436102,-0.032175343,0.015754594,0.14641486,0.010187462,0
1774611457890,-0.19148886,0.075930595,0.15446997,-0.043783117,0.0062452145,0.0056456737,0.06629441,0.0019878377,0
1774611457913,-0.18520892,0.002407074,0.2717042,0.0074442956,0.012723584,0.0024148163,0.108131304,2.2313844E-4,0
1774611457932,-0.21377802,-0.033574104,0.00476408,-0.0053459033,0.011308001,0.00806049,0.04685096,2.2142107E-4,0
1774611457953,-0.21242005,-0.016928196,-0.2673893,-0.04896248,0.025796898,0.005978752,0.11690588,0.0030985503,0
1774611457972,-0.18522769,-7.109642E-4,-0.30302048,-0.08311964,0.052026797,-0.00844353,0.1261312,0.009686954,0
1774611457992,-0.23913813,0.018544674,-0.16855764,-0.08436868,0.05027814,-0.0015654671,0.085942626,0.009648416,0
1774611458020,-0.36390972,-0.02492714,0.04945278,-0.058188744,0.029360835,0.036105666,0.13549723,0.005551608,0
1774611458033,-0.37347877,-0.025465012,0.104824066,-0.039602987,0.024764357,0.0718616,0.15112294,0.0073457602,0
1774611458052,-0.23968244,0.032640934,0.07115412,-0.040319104,0.034573507,0.076957695,0.06357601,0.008743444,0
1774611458075,-0.026220798,0.024760246,0.06960535,-0.04743032,0.028644716,0.05237653,0.0061455052,0.005813456,0
1774611458093,0.1283288,0.01536274,0.15464878,-0.02844487,6.661562E-5,0.014921899,0.04062054,0.001031778,0
1774611458115,0.18268228,-0.03087616,0.3152089,0.020084608,-0.012590352,-0.020201186,0.13368282,9.699964E-4,0
1774611458132,0.07417834,0.032948017,0.19154501,0.028011868,-0.014722052,-0.02934418,0.043277487,0.0018624845,0
1774611458152,-0.049577475,0.11271477,0.08542204,0.0058621746,-0.02111715,-0.03041003,0.02245947,0.0014050691,0
1774611458173,-0.056491017,0.18042707,0.10193539,-0.009476072,-0.049328867,-0.052093413,0.046135988,0.0052368566,0
1774611458191,0.13984108,-0.21665955,0.4203539,0.032908116,-0.05609035,-0.050144907,0.24319428,0.0067435834,0
1774611458218,-0.0057030916,-0.029129028,0.46785975,0.091563165,-0.027195826,-0.0411518,0.21977377,0.010816896,0
1774611458230,0.11189616,0.028999805,0.25162172,0.07629154,0.011324655,-0.07982217,0.07667523,0.012320225,0
1774611458251,0.06775653,0.024456978,-0.03683853,0.021633422,-0.02021784,-0.09084705,0.0065461686,0.009129953,0
1774611458269,-0.10206926,-0.05324793,-0.11350441,0.0024148163,-0.04456585,-0.06939682,0.026136726,0.0068078656,0
1774611458292,-0.043001413,-0.015900612,0.021774769,0.0077940277,-0.019052068,-0.06858078,0.0025760916,0.005127051,0
1774611458310,0.049494743,-0.029726982,0.077497005,0.029377488,-0.05827201,-0.10440333,0.00933921,0.01515872,0
1774611458333,0.052930236,-0.11160231,-0.017012596,0.04743032,-0.06918032,-0.100189894,0.015546113,0.017073566,0
1774611458348,-0.03767264,-0.1523714,-0.081505775,0.032175343,-0.13436371,-0.086150646,0.031279463,0.026510794,0
1774611458371,-0.18333495,-0.019968987,-0.20112848,-0.0109083075,-0.18945482,-0.07246114,0.07446313,0.04126274,0
1774611458389,-0.17456377,0.029664993,-0.1256361,-0.040935297,-0.19203618,-0.074576184,0.047136948,0.044115204,0
1774611458408,0.022581697,-0.0601573,0.04437971,-0.045731623,-0.17271765,-0.09069717,0.0060983924,0.040148742,0
1774611458439,0.18534803,-0.12804127,0.23154926,-0.023915008,-0.15008499,-0.11594448,0.104363516,0.036540553,0
1774611458450,0.24469769,-0.1192565,0.32943916,-0.0040802066,-0.17266768,-0.15294947,0.18262923,0.053224318,0
1774611458469,0.17143816,-0.15685844,0.30181217,-0.004213438,-0.19306871,-0.17483269,0.1450862,0.067859754,0
1774611458491,-0.030402422,-0.17288733,0.24464607,-0.0031309342,-0.1712188,-0.15170042,0.09066604,0.052338697,0
1774611458507,-0.14412856,-0.23468542,0.2782812,0.027778713,-0.17793033,-0.120091304,0.15329072,0.04685278,0
1774611458530,-0.12598515,-0.2238822,0.27856445,0.04683078,-0.2311562,-0.10247148,0.14359364,0.06612671,0
1774611458550,0.007831633,-0.1626687,0.16486025,0.026646247,-0.2746229,-0.12277259,0.053701345,0.09120086,0
1774611458567,0.27757746,-0.1997304,0.14274883,0.0017320061,-0.22935757,-0.17726417,0.13731872,0.08403048,0
1774611458588,0.39966837,-0.18071747,0.20558691,0.012307236,-0.16375785,-0.23252182,0.23465958,0.0810345,0
1774611458607,0.3638027,-0.20944262,0.26252174,0.032991387,-0.18044506,-0.27204153,0.24513629,0.10765545,0
1774611458629,0.31266588,-0.23295927,0.18028641,0.036738515,-0.23848392,-0.30751434,0.18453316,0.15278937,0
1774611458658,0.28647655,-0.32591343,0.12810135,0.055207696,-0.24696076,-0.32190332,0.20469832,0.16765925,0
1774611458671,0.2006861,-0.28705359,-0.017904282,0.055340927,-0.26075017,-0.33131278,0.122995235,0.18082142,0
1774611458689,0.07897937,-0.3210554,0.023446083,0.07704096,-0.3161244,-0.3190222,0.10986404,0.20764512,0
1774611458709,-0.041101635,-0.29668474,-0.088740826,0.056440085,-0.28869545,-0.3000867,0.09758612,0.17658257,0
1774611458733,0.074778736,-0.29107141,-0.44655514,-0.03189223,-0.25428846,-0.29295883,0.28972593,0.1515046,0
1774611458747,0.13370359,-0.2778139,-0.1430006,-0.03267496,-0.27642152,-0.30243492,0.115506396,0.16894339,0
1774611458770,0.18710339,-0.27134037,0.15937662,0.044932235,-0.28862882,-0.31760663,0.13403419,0.18619947,0
1774611458787,0.03979969,-0.25338745,0.10867691,0.073893376,-0.3171403,-0.2999035,0.07759988,0.19598034,0
1774611458809,-0.0686602,-0.22007084,-0.34078836,0.010092266,-0.35624367,-0.2704261,0.16928211,0.20014167,0
1774611458836,-0.0019136667,-0.1904993,-0.47319984,-0.06843089,-0.36568645,-0.26689547,0.26021174,0.20964256,0
1774611458849,0.25675195,-0.19595861,-0.16679955,-0.061053216,-0.3378078,-0.30260146,0.13214344,0.20940925,0
1774611458869,0.29031223,-0.21801424,0.19004917,0.0030643186,-0.35033154,-0.320138,0.16793008,0.22522992,0
1774611458887,0.15606439,-0.21477127,0.2094531,0.025430514,-0.37880972,-0.30021995,0.11435339,0.23427555,0
1774611458909,0.19317484,-0.16275597,0.045796394,0.008610069,-0.37737748,-0.29422453,0.065903336,0.22905597,0
1774611458941,0.31290632,-0.07541895,0.10367823,0.027845329,-0.3723147,-0.30806392,0.11434756,0.23429698,0
1774611458947,0.47015333,-0.13078451,0.24804163,0.081903905,-0.39343184,-0.35156393,0.2996734,0.28509405,0
1774611458967,0.5586061,-0.22322655,0.14724255,0.10696803,-0.38308978,-0.38512155,0.3835512,0.30651855,0
1774611458985,0.38204932,-0.12959814,-0.17732191,0.08631719,-0.38032523,-0.3974954,0.19420043,0.31010053,0
1774611459009,0.13049203,0.018816948,-0.3654728,0.04691405,-0.4189956,-0.38497168,0.1509526,0.3259614,0
1774611459038,0.021211207,0.125947,-0.35602856,0.005079441,-0.45791575,-0.37288094,0.1430689,0.3487528,0
1774611459049,0.17280573,0.1632657,-0.36503983,-0.043816425,-0.44104537,-0.39479747,0.1897716,0.35230595,0
1774611459065,0.29900095,0.13627815,-0.348176,-0.11461217,-0.4426941,-0.42788878,0.22919983,0.39220282,0
1774611459085,0.25768936,0.116564274,-0.17819548,-0.15216672,-0.44261083,-0.44281068,0.111744665,0.41514033,0
1774611459109,0.16999689,0.051602364,0.15487766,-0.14132504,-0.41298354,-0.43668205,0.05554884,0.3812194,0
1774611459127,0.099135935,0.027262688,0.36639404,-0.09066386,-0.3396231,-0.4072879,0.14481577,0.28944722,0
1774611459150,-0.07866269,0.10338211,0.4378338,-0.027362365,-0.30738112,-0.35705972,0.2085741,0.22272348,0
1774611459165,-0.111299574,0.117344856,0.23422337,0.00174866,-0.32951418,-0.31379288,0.08101799,0.20704862,0
1774611459186,-0.110518694,0.16518974,-0.07272434,-0.0137061635,-0.36791807,-0.28676358,0.044790864,0.21778491,0
1774611459208,-0.07784465,0.20221806,-0.3086276,-0.043549962,-0.34755033,-0.26684552,0.14220293,0.19389436,0
1774611459228,-0.04284081,0.21888685,-0.33996487,-0.073293835,-0.28962806,-0.2334711,0.1653229,0.14376515,0
1774611459255,0.0066263974,0.24718809,-0.23816967,-0.06708193,-0.27067593,-0.20342745,0.11787065,0.119148165,0
1774611459267,0.0771181,0.27163792,-0.043702602,-0.061136484,-0.33750802,-0.18702336,0.08164428,0.15262708,0
1774611459287,0.13467437,0.34360218,0.02872324,-0.063517995,-0.3567433,-0.18520808,0.13702467,0.16560236,0
1774611459307,0.19827038,0.2862649,0.051949024,-0.076824464,-0.2912435,-0.18097799,0.12395744,0.1234778,0
1774611459326,0.14186487,0.27564812,0.073931694,-0.059004784,-0.20111255,-0.15456489,0.10157342,0.06781813,0
1774611459351,9.1329217E-4,0.26428413,0.13819933,-0.017703101,-0.20520942,-0.113046706,0.08894599,0.055203862,0
1774611459369,-0.039591193,0.28534746,-0.012826443,-0.017370023,-0.26514682,-0.08929824,0.08315515,0.07857873,0
1774611459387,0.058608428,0.27031803,-0.2240696,-0.037721094,-0.32691616,-0.08396899,0.12671396,0.11534785,0
1774611459404,0.045228183,0.26864195,-0.21693897,-0.046897396,-0.33590925,-0.07829001,0.1212766,0.12116371,0
1774611459425,0.11715283,0.1844325,-0.26577997,-0.06145291,-0.2656964,-0.0776405,0.11837913,0.08039909,0
1774611459450,0.27046484,0.11522722,-0.2375083,-0.063517995,-0.21831603,-0.10097262,0.14283873,0.061891895,0
1774611459467,0.30563134,0.11348343,-0.15873384,-0.057589203,-0.24584495,-0.13299808,0.13148543,0.08144474,0
1774611459486,0.14983149,0.117993355,-0.13176775,-0.048329633,-0.2876962,-0.14382312,0.053734645,0.10578996,0
1774611459507,-0.0079487935,0.041158676,-0.14228821,-0.037987556,-0.27095902,-0.13501321,0.022003153,0.09309041,0
1774611459530,0.009400375,-0.05108261,-0.1405034,-0.02912768,-0.1915199,-0.13366424,0.022439007,0.05539442,0
1774611459551,0.06723112,-0.088460445,-0.13347483,-0.02434801,-0.14109188,-0.15140066,0.030160803,0.0434219,0
1774611459566,-0.017964069,-0.04890299,-0.091137886,-0.01475536,-0.17113553,-0.15499789,0.011020324,0.053529434,0
1774611459586,-0.1659687,-0.06881666,-0.0275774,-0.009759189,-0.21100497,-0.13341443,0.033041857,0.06241775,0
1774611459604,-0.19233528,-0.07679415,-0.10307455,-0.008027182,-0.16110988,-0.111847624,0.053514563,0.038530722,0
1774611459623,-0.07462632,-0.11556721,-0.17489243,-0.013423047,-0.07359361,-0.114545554,0.049512226,0.018716881,0
1774611459646,-0.057458952,-0.11836052,-0.38896608,-0.061569486,-0.049328867,-0.11989146,0.16860536,0.0205981,0
1774611459671,-0.14348227,-0.06512737,-0.48981953,-0.12172339,-0.086500384,-0.11447894,0.2647519,0.03540433,0
1774611459685,-0.16984965,-0.0699358,-0.2521987,-0.11381278,-0.09467745,-0.10010662,0.0973441,0.031938504,0
1774611459707,-0.20040531,-0.16368246,-0.007860184,-0.074942574,-0.08883193,-0.06808116,0.06701602,0.018142546,0
1774611459726,-0.28575087,-0.16613865,-0.03941822,-0.07479268,-0.04792994,-0.016970329,0.11080941,0.008179217,0
1774611459753,-0.2746809,-0.14294529,-0.11224508,-0.088748656,0.007694104,0.038487174,0.108481914,0.009416785,0
1774611459765,-0.114665575,-0.09020758,-0.027805328,-0.0842188,-0.048146438,0.063401416,0.022058737,0.013430625,0
1774611459785,0.094965935,0.022958279,0.19862747,-0.06873067,-0.123305514,0.042883806,0.048998486,0.021767175,0
1774611459803,0.31753695,0.05940008,0.23960876,-0.07629154,-0.08386906,-0.0010825038,0.16177045,0.012855589,0
1774611459822,0.3673135,0.10631418,0.23425293,-0.07041271,0.02473105,-0.02682944,0.20109636,0.006289393,0
1774611459842,0.21563742,0.09711647,0.37458515,-0.02912768,0.03527297,-0.012490429,0.19624515,0.0022486148,0
1774611459869,0.09736773,0.13871717,0.35987282,0.017120214,-0.0069113704,0.004230092,0.15823138,3.5876245E-4,0
1774611459884,0.15422893,0.18112087,0.20661831,0.030210184,-0.043133613,-0.019501723,0.09928246,0.003153481,0
1774611459903,0.27995238,0.17877483,-0.025615692,1.6653904E-4,-0.04040237,-0.059737556,0.11098994,0.005200955,0
1774611459922,0.28287792,0.13132286,-0.077477455,-0.032874808,-0.022366194,-0.080504976,0.10326837,0.008062051,0
1774611459943,0.1973089,0.10503101,0.13539505,0.0037304747,-0.017320061,-0.08418549,0.06829413,0.0074010976,0
1774611459971,0.12623346,0.042195797,0.34113598,0.060670175,-0.03019353,-0.079655625,0.13408913,0.010937538,0
1774611459981,0.06340414,0.009423733,0.14786911,0.07076244,-0.030726455,-0.06793128,0.025974166,0.010566097,0
1774611460002,0.06008589,-0.02540493,-0.071056366,0.053758804,-0.019601647,-0.05920463,0.009304732,0.006779422,0
1774611460026,0.11138269,-0.014688969,-0.18399858,0.04564835,-0.024814319,-0.062368874,0.046477348,0.0065893987,0
1774611460044,0.15041342,-0.027585506,-0.13404083,0.04406623,-0.07071248,-0.08511811,0.0413521,0.0141871795,0
1774611460067,0.20566677,0.0155825615,-0.16522932,0.025097435,-0.065283306,-0.11274694,0.06984236,0.017603664,0
1774611460081,0.24718088,-0.019108772,-0.16686678,0.005046133,-0.009542688,-0.14005934,0.08930805,0.019733146,0
1774611460102,0.15498294,-0.033461094,-0.16496134,-0.0099756885,0.012557045,-0.14445597,0.0523516,0.02112472,0
1774611460123,-0.018455338,-0.0056877136,-0.107759,-0.03404058,-0.017203484,-0.124837674,0.011984952,0.017039165,0
1774611460141,-0.11410337,0.03251314,0.01860094,-0.028178407,-0.039686255,-0.10052297,0.014422677,0.012473889,0
1774611460171,-0.079166695,-0.051706314,0.15461302,0.0112746935,-0.03833729,-0.07740735,0.032846093,0.0075887647,0
1774611460182,-0.050106153,-0.115823746,0.11484051,0.023465352,-0.03155915,-0.060020674,0.029114109,0.005149084,0
1774611460200,0.0067650387,-0.13587856,7.4768066E-4,0.01117477,-0.01986811,-0.0511941,0.018509308,0.0031404532,0
1774611460224,0.050453275,-0.10232973,-0.059132576,0.012956738,0.006378446,-0.059854135,0.016513567,0.003791079,0
1774611460240,-0.0718663,-0.06189394,-0.08855009,0.0110915005,0.0058455206,-0.04683078,0.016836744,0.0023503134,0
1774611460261,-0.28019908,0.020476818,-0.14086246,-0.0030310107,-0.03019353,-0.0059121363,0.09877306,9.5578964E-4,0
1774611460285,-0.22539404,0.038891792,-0.02970171,0.010192189,-0.028145099,0.014838629,0.053197235,0.0011162122,0
1774611460302,-0.008265579,-0.0051345825,0.11183596,0.052326567,0.013722817,0.0018485835,0.012601965,0.0029298028,0
1774611460320,0.04622429,-0.035734177,0.051769257,0.0878327,0.06510011,-0.003980283,0.0060936725,0.01196845,0
1774611460340,-0.013606481,0.0052452087,-0.1721816,0.06979652,0.045182046,-0.0010991577,0.029859154,0.006914179,0
1774611460359,-0.06935698,0.117973804,-0.3359537,0.029360835,-0.023348775,0.0019984685,0.13159311,0.0014112177,0
1774611460385,-0.04322414,0.051834583,-0.26730633,-1.9984687E-4,-0.061885912,0.011324655,0.07600782,0.003958154,0
1774611460402,0.08757068,-0.022165775,-0.2017703,-0.0116577335,0.011607772,0.0072611026,0.048871204,3.2336672E-4,0
1774611460424,0.12883036,0.017920017,-0.21323776,-0.038187403,0.07136198,-0.0074276417,0.062388733,0.00660598,0
1774611460450,-0.0049866326,0.101080894,-0.17138529,-0.072128065,0.032275267,0.0062285606,0.039615132,0.006282946,0
1774611460463,-0.16837834,0.08474016,-0.098680496,-0.1053526,-0.03650536,0.04598143,0.045269996,0.014546104,0
1774611460485,-0.14988503,0.07985973,0.100739,-0.09436102,-0.04564835,0.077540584,0.038991444,0.017000318,0
1774611460504,-0.09622467,0.019036293,0.29784632,-0.044199463,-0.016703866,0.10303771,0.098334,0.012849381,0
1774611460522,-0.04478572,-0.071003914,0.28350592,-0.0048795943,-0.015338247,0.12921765,0.08742292,0.016956273,0
1774611460541,-0.1104751,-0.055281162,0.13342094,0.004396631,-0.052493107,0.14745368,0.033061903,0.024517445,0
1774611460568,-0.11540502,-0.029789925,0.001721859,0.003663859,-0.0449822,0.15956107,0.014208724,0.027496558,0
1774611460582,-0.022986528,-0.026559353,-0.17257404,0.012557045,0.011441233,0.15018491,0.031015579,0.02284409,0
1774611460603,-0.003773734,-0.032970905,-0.35516977,0.0082936445,0.019984685,0.12478771,0.12724689,0.016040144,0
1774611460619,-0.03261509,-0.03222704,-0.55443573,-0.019351838,-0.034656774,0.09585988,0.3095013,0.010764701,0
1774611460641,-0.20609337,-0.014266014,-0.48626328,-0.03808748,-0.119058765,0.1000067,0.27912998,0.025626987,0
1774611460670,-0.30771607,0.0049324036,-0.36301708,-0.05300938,-0.073543645,0.119058765,0.22649491,0.022393651,0
1774611460686,-0.20447324,0.012477875,-0.22601175,-0.050811063,0.04453254,0.12736906,0.093046315,0.020787789,0
1774611460702,-0.12332696,0.035308838,-0.1077795,-0.07732408,0.105502486,0.106801495,0.028072674,0.028516347,0
1774611460720,-0.08766869,0.09254074,-0.03469944,-0.1377278,0.09585988,0.08759954,0.017453639,0.035831742,0
1774611460741,-0.11225405,0.124361515,0.3367138,-0.10407025,0.100289814,0.106801495,0.14144294,0.032295223,0
1774611460765,-0.11143717,0.06916332,0.7650213,-0.014788668,0.14373985,0.14732045,0.60245943,0.04258316,0
1774611460787,-0.012638986,0.048308372,0.72779274,0.032308575,0.18081145,0.1912368,0.5321757,0.070308134,0
1774611460801,0.17549233,0.07447815,0.4980402,0.043266844,0.17574866,0.19616635,0.2843886,0.07124086,0
1774611460818,0.40814167,0.075494766,0.3232441,0.033824082,0.1599108,0.16052699,0.27676582,0.052484445,0
1774611460841,0.46321008,0.06629133,0.16338444,0.027162518,0.19153656,0.1341472,0.2456526,0.055419527,0
1774611460858,0.31874412,-0.026616573,0.025406837,0.0304933,0.22562711,0.15506451,0.102951765,0.075882435,0
